Folder: heo-xas-xrd/Output/ROCK_XRD/WAM39B_integrated/rampe3 (part 5)

File: wam39b_rampe_3_xrd_000012_integrated.dat
# == pyFAI calibration ==
# Distance Sample to Detector: 0.261615 m
# PONI: 2.023e-01, 2.348e-01 m
# Rotations: -0.026380 0.002005 0.000000 rad
#
# == Fit2d calibration ==
# Distance Sample-beamCenter: 261.707 mm
# Center: x=6119.331, y=5134.776 pix
# Tilt: 1.516 deg  TiltPlanRot: 4.347 deg
#
# Detector Rayonix SX165	 PixelSize= 3.950e-05, 3.950e-05 m
#    Detector has a mask: True
#    Detector has a dark current: False
#    detector has a flat field: False
#
# Wavelength: 1.12713e-10 m
# Mask applied: from detector
# Dark current applied: False
# Flat field applied: False
# Polarization factor: None
# Normalization factor: 1.0
# --> ROCK\\WAM39B_integrated\wam39b_rampe_3_xrd_000012_integrated.dat
#       2th_deg             I
  2.502596e+01    4.409630e+03
  2.511750e+01    1.801989e+04
  2.520905e+01    1.831245e+04
  2.530059e+01    1.838249e+04
  2.539213e+01    1.790858e+04
  2.548367e+01    1.779773e+04
  2.557521e+01    1.780559e+04
  2.566675e+01    1.807770e+04
  2.575829e+01    1.849527e+04
  2.584984e+01    1.863609e+04
  2.594138e+01    1.841453e+04
  2.603292e+01    1.809967e+04
  2.612446e+01    1.778163e+04
  2.621600e+01    1.765829e+04
  2.630754e+01    1.819317e+04
  2.639908e+01    2.159943e+04
  2.649063e+01    3.028851e+04
  2.658217e+01    2.969130e+04
  2.667371e+01    4.064689e+04
  2.676525e+01    2.401181e+04
  2.685679e+01    1.751361e+04
  2.694833e+01    1.603721e+04
  2.703988e+01    1.549973e+04
  2.713142e+01    1.522907e+04
  2.722296e+01    1.498223e+04
  2.731450e+01    1.479095e+04
  2.740604e+01    1.458462e+04
  2.749758e+01    1.446997e+04
  2.758912e+01    1.439148e+04
  2.768067e+01    1.431942e+04
  2.777221e+01    1.431154e+04
  2.786375e+01    1.443267e+04
  2.795529e+01    1.476018e+04
  2.804683e+01    1.645995e+04
  2.813837e+01    1.976616e+04
  2.822991e+01    1.584361e+04
  2.832146e+01    1.427133e+04
  2.841300e+01    1.358576e+04
  2.850454e+01    1.314577e+04
  2.859608e+01    1.283258e+04
  2.868762e+01    1.257562e+04
  2.877916e+01    1.236842e+04
  2.887070e+01    1.220211e+04
  2.896225e+01    1.206400e+04
  2.905379e+01    1.198318e+04
  2.914533e+01    1.194335e+04
  2.923687e+01    1.180897e+04
  2.932841e+01    1.153901e+04
  2.941995e+01    1.130143e+04
  2.951149e+01    1.115924e+04
  2.960304e+01    1.154956e+04
  2.969458e+01    1.266272e+04
  2.978612e+01    1.107395e+04
  2.987766e+01    1.055041e+04
  2.996920e+01    1.040627e+04
  3.006074e+01    1.032354e+04
  3.015228e+01    1.028315e+04
  3.024383e+01    1.023582e+04
  3.033537e+01    1.021630e+04
  3.042691e+01    1.025251e+04
  3.051845e+01    1.039451e+04
  3.060999e+01    1.083001e+04
  3.070153e+01    1.267728e+04
  3.079308e+01    2.152509e+04
  3.088462e+01    4.065229e+04
  3.097616e+01    2.743434e+04
  3.106770e+01    1.778031e+04
  3.115924e+01    2.813130e+04
  3.125078e+01    1.681111e+04
  3.134232e+01    1.067309e+04
  3.143387e+01    9.756933e+03
  3.152541e+01    9.456999e+03
  3.161695e+01    9.284078e+03
  3.170849e+01    9.154521e+03
  3.180003e+01    9.077359e+03
  3.189157e+01    9.010880e+03
  3.198311e+01    8.960556e+03
  3.207466e+01    8.930066e+03
  3.216620e+01    8.918329e+03
  3.225774e+01    8.899368e+03
  3.234928e+01    8.839972e+03
  3.244082e+01    8.804677e+03
  3.253236e+01    9.454702e+03
  3.262390e+01    1.009389e+04
  3.271545e+01    8.800478e+03
  3.280699e+01    8.587044e+03
  3.289853e+01    8.550720e+03
  3.299007e+01    8.473065e+03
  3.308161e+01    8.325450e+03
  3.317315e+01    8.209336e+03
  3.326469e+01    8.155292e+03
  3.335624e+01    8.118704e+03
  3.344778e+01    8.080665e+03
  3.353932e+01    8.062007e+03
  3.363086e+01    8.070432e+03
  3.372240e+01    8.165962e+03
  3.381394e+01    8.761195e+03
  3.390549e+01    1.463082e+04
  3.399703e+01    1.926230e+04
  3.408857e+01    9.670740e+03
  3.418011e+01    8.076048e+03
  3.427165e+01    7.792282e+03
  3.436319e+01    7.682885e+03
  3.445473e+01    7.606287e+03
  3.454628e+01    7.564261e+03
  3.463782e+01    7.545562e+03
  3.472936e+01    7.542275e+03
  3.482090e+01    7.543960e+03
  3.491244e+01    7.563749e+03
  3.500398e+01    7.584188e+03
  3.509552e+01    7.549336e+03
  3.518707e+01    7.429930e+03
  3.527861e+01    7.305110e+03
  3.537015e+01    7.192069e+03
  3.546169e+01    7.116854e+03
  3.555323e+01    7.053980e+03
  3.564477e+01    7.010236e+03
  3.573631e+01    6.988407e+03
  3.582786e+01    6.966498e+03
  3.591940e+01    6.959226e+03
  3.601094e+01    6.967572e+03
  3.610248e+01    6.979160e+03
  3.619402e+01    6.987037e+03
  3.628556e+01    7.031253e+03
  3.637710e+01    7.152901e+03
  3.646865e+01    8.051724e+03
  3.656019e+01    1.228526e+04
  3.665173e+01    8.901615e+03
  3.674327e+01    7.281133e+03
  3.683481e+01    7.105330e+03
  3.692635e+01    7.087770e+03
  3.701790e+01    7.098454e+03
  3.710944e+01    7.111548e+03
  3.720098e+01    7.166542e+03
  3.729252e+01    7.242927e+03
  3.738406e+01    7.357206e+03
  3.747560e+01    7.612995e+03
  3.756714e+01    8.272574e+03
  3.765869e+01    1.116621e+04
  3.775023e+01    3.912340e+04
  3.784177e+01    6.109430e+04
  3.793331e+01    1.611493e+04
  3.802485e+01    9.010910e+03
  3.811639e+01    7.880933e+03
  3.820793e+01    7.500141e+03
  3.829948e+01    7.339922e+03
  3.839102e+01    7.243562e+03
  3.848256e+01    7.210698e+03
  3.857410e+01    7.196141e+03
  3.866564e+01    7.192998e+03
  3.875718e+01    7.201600e+03
  3.884872e+01    7.256198e+03
  3.894027e+01    7.977022e+03
  3.903181e+01    9.559301e+03
  3.912335e+01    7.604371e+03
  3.921489e+01    7.131800e+03
  3.930643e+01    7.042559e+03
  3.939797e+01    7.007278e+03
  3.948951e+01    6.967161e+03
  3.958106e+01    6.971524e+03
  3.967260e+01    6.970678e+03
  3.976414e+01    6.933665e+03
  3.985568e+01    6.906662e+03
  3.994722e+01    6.864379e+03
  4.003876e+01    6.848167e+03
  4.013031e+01    7.109628e+03
  4.022185e+01    7.363760e+03
  4.031339e+01    6.848790e+03
  4.040493e+01    6.742845e+03
  4.049647e+01    6.709771e+03
  4.058801e+01    6.690707e+03
  4.067955e+01    6.679576e+03
  4.077110e+01    6.668393e+03
  4.086264e+01    6.673659e+03
  4.095418e+01    6.681130e+03
  4.104572e+01    6.719043e+03
  4.113726e+01    6.851250e+03
  4.122880e+01    7.656870e+03
  4.132034e+01    1.302709e+04
  4.141189e+01    1.000618e+04
  4.150343e+01    7.156471e+03
  4.159497e+01    6.865005e+03
  4.168651e+01    6.835896e+03
  4.177805e+01    6.796600e+03
  4.186959e+01    6.736048e+03
  4.196113e+01    6.711700e+03
  4.205268e+01    6.718440e+03
  4.214422e+01    6.762381e+03
  4.223576e+01    6.838026e+03
  4.232730e+01    6.970740e+03
  4.241884e+01    7.831749e+03
  4.251038e+01    7.741860e+03
  4.260192e+01    6.710430e+03
  4.269347e+01    6.544517e+03
  4.278501e+01    6.493339e+03
  4.287655e+01    6.466615e+03
  4.296809e+01    6.466859e+03
  4.305963e+01    6.457103e+03
  4.315117e+01    6.475192e+03
  4.324272e+01    6.506395e+03
  4.333426e+01    6.605114e+03
  4.342580e+01    7.005264e+03
  4.351734e+01    1.060541e+04
  4.360888e+01    1.056914e+04
  4.370042e+01    7.105344e+03
  4.379196e+01    6.756291e+03
  4.388351e+01    6.856370e+03
  4.397505e+01    7.198234e+03
  4.406659e+01    8.575928e+03
  4.415813e+01    1.456399e+04
  4.424967e+01    2.048804e+04
  4.434121e+01    1.209831e+04
  4.443275e+01    8.732390e+03
  4.452430e+01    1.077387e+04
  4.461584e+01    2.916123e+04
  4.470738e+01    1.789583e+04
  4.479892e+01    8.074055e+03
  4.489046e+01    6.881453e+03
  4.498200e+01    6.592591e+03
  4.507354e+01    6.470270e+03
  4.516509e+01    6.410711e+03
  4.525663e+01    6.377114e+03
  4.534817e+01    6.380948e+03
  4.543971e+01    6.419383e+03
  4.553125e+01    6.725882e+03
  4.562279e+01    9.431967e+03
  4.571433e+01    1.267164e+04
  4.580588e+01    7.514459e+03
  4.589742e+01    6.530066e+03
  4.598896e+01    6.392146e+03
  4.608050e+01    6.376860e+03
  4.617204e+01    6.414548e+03
  4.626358e+01    6.444371e+03
  4.635513e+01    6.384500e+03
  4.644667e+01    6.318162e+03
  4.653821e+01    6.350230e+03
  4.662975e+01    6.763615e+03
  4.672129e+01    8.356292e+03
  4.681283e+01    7.057570e+03
  4.690437e+01    6.561625e+03
  4.699592e+01    6.548195e+03
  4.708746e+01    6.573419e+03
  4.717900e+01    6.552861e+03
  4.727054e+01    6.568624e+03
  4.736208e+01    6.611130e+03
  4.745362e+01    6.747556e+03
  4.754516e+01    7.016234e+03
  4.763671e+01    7.498364e+03
  4.772825e+01    8.450391e+03
  4.781979e+01    7.167391e+03
  4.788844e+01    2.746688e+03

File: wam39b_rampe_3_xrd_000013_integrated.dat
# == pyFAI calibration ==
# Distance Sample to Detector: 0.261615 m
# PONI: 2.023e-01, 2.348e-01 m
# Rotations: -0.026380 0.002005 0.000000 rad
#
# == Fit2d calibration ==
# Distance Sample-beamCenter: 261.707 mm
# Center: x=6119.331, y=5134.776 pix
# Tilt: 1.516 deg  TiltPlanRot: 4.347 deg
#
# Detector Rayonix SX165	 PixelSize= 3.950e-05, 3.950e-05 m
#    Detector has a mask: True
#    Detector has a dark current: False
#    detector has a flat field: False
#
# Wavelength: 1.12713e-10 m
# Mask applied: from detector
# Dark current applied: False
# Flat field applied: False
# Polarization factor: None
# Normalization factor: 1.0
# --> ROCK\\WAM39B_integrated\wam39b_rampe_3_xrd_000013_integrated.dat
#       2th_deg             I
  2.502596e+01    4.939578e+03
  2.511750e+01    2.018213e+04
  2.520905e+01    2.050007e+04
  2.530059e+01    2.058820e+04
  2.539213e+01    2.000516e+04
  2.548367e+01    1.990136e+04
  2.557521e+01    1.986704e+04
  2.566675e+01    2.009411e+04
  2.575829e+01    2.052185e+04
  2.584984e+01    2.076904e+04
  2.594138e+01    2.060347e+04
  2.603292e+01    2.024016e+04
  2.612446e+01    1.987933e+04
  2.621600e+01    1.967768e+04
  2.630754e+01    2.004223e+04
  2.639908e+01    2.269269e+04
  2.649063e+01    3.281572e+04
  2.658217e+01    3.159773e+04
  2.667371e+01    4.508417e+04
  2.676525e+01    2.981757e+04
  2.685679e+01    2.014477e+04
  2.694833e+01    1.805049e+04
  2.703988e+01    1.737459e+04
  2.713142e+01    1.702421e+04
  2.722296e+01    1.672836e+04
  2.731450e+01    1.651987e+04
  2.740604e+01    1.629380e+04
  2.749758e+01    1.616960e+04
  2.758912e+01    1.605275e+04
  2.768067e+01    1.597326e+04
  2.777221e+01    1.592107e+04
  2.786375e+01    1.604149e+04
  2.795529e+01    1.629799e+04
  2.804683e+01    1.762106e+04
  2.813837e+01    2.198407e+04
  2.822991e+01    1.830054e+04
  2.832146e+01    1.610199e+04
  2.841300e+01    1.523028e+04
  2.850454e+01    1.471200e+04
  2.859608e+01    1.434507e+04
  2.868762e+01    1.405602e+04
  2.877916e+01    1.381987e+04
  2.887070e+01    1.360830e+04
  2.896225e+01    1.344602e+04
  2.905379e+01    1.334494e+04
  2.914533e+01    1.328456e+04
  2.923687e+01    1.317658e+04
  2.932841e+01    1.289119e+04
  2.941995e+01    1.262687e+04
  2.951149e+01    1.243917e+04
  2.960304e+01    1.262009e+04
  2.969458e+01    1.409696e+04
  2.978612e+01    1.259865e+04
  2.987766e+01    1.179035e+04
  2.996920e+01    1.161307e+04
  3.006074e+01    1.150922e+04
  3.015228e+01    1.144821e+04
  3.024383e+01    1.138993e+04
  3.033537e+01    1.136542e+04
  3.042691e+01    1.138786e+04
  3.051845e+01    1.150666e+04
  3.060999e+01    1.188826e+04
  3.070153e+01    1.332640e+04
  3.079308e+01    2.024614e+04
  3.088462e+01    4.168735e+04
  3.097616e+01    3.540543e+04
  3.106770e+01    2.005327e+04
  3.115924e+01    2.871866e+04
  3.125078e+01    2.226265e+04
  3.134232e+01    1.240830e+04
  3.143387e+01    1.099015e+04
  3.152541e+01    1.057956e+04
  3.161695e+01    1.036690e+04
  3.170849e+01    1.022225e+04
  3.180003e+01    1.011507e+04
  3.189157e+01    1.003956e+04
  3.198311e+01    9.975642e+03
  3.207466e+01    9.932183e+03
  3.216620e+01    9.919210e+03
  3.225774e+01    9.905515e+03
  3.234928e+01    9.839793e+03
  3.244082e+01    9.768293e+03
  3.253236e+01    1.017612e+04
  3.262390e+01    1.144426e+04
  3.271545e+01    9.961362e+03
  3.280699e+01    9.553062e+03
  3.289853e+01    9.517856e+03
  3.299007e+01    9.451224e+03
  3.308161e+01    9.290009e+03
  3.317315e+01    9.153804e+03
  3.326469e+01    9.081131e+03
  3.335624e+01    9.031111e+03
  3.344778e+01    9.002460e+03
  3.353932e+01    8.964625e+03
  3.363086e+01    8.967802e+03
  3.372240e+01    9.026165e+03
  3.381394e+01    9.438334e+03
  3.390549e+01    1.331134e+04
  3.399703e+01    2.327406e+04
  3.408857e+01    1.206998e+04
  3.418011e+01    9.139566e+03
  3.427165e+01    8.701280e+03
  3.436319e+01    8.552018e+03
  3.445473e+01    8.462968e+03
  3.454628e+01    8.411394e+03
  3.463782e+01    8.385248e+03
  3.472936e+01    8.372803e+03
  3.482090e+01    8.364312e+03
  3.491244e+01    8.383649e+03
  3.500398e+01    8.414498e+03
  3.509552e+01    8.401528e+03
  3.518707e+01    8.281321e+03
  3.527861e+01    8.135835e+03
  3.537015e+01    8.019477e+03
  3.546169e+01    7.917885e+03
  3.555323e+01    7.852083e+03
  3.564477e+01    7.791041e+03
  3.573631e+01    7.763526e+03
  3.582786e+01    7.737171e+03
  3.591940e+01    7.736575e+03
  3.601094e+01    7.744361e+03
  3.610248e+01    7.740000e+03
  3.619402e+01    7.761274e+03
  3.628556e+01    7.786390e+03
  3.637710e+01    7.886517e+03
  3.646865e+01    8.423525e+03
  3.656019e+01    1.263047e+04
  3.665173e+01    1.112594e+04
  3.674327e+01    8.234771e+03
  3.683481e+01    7.923570e+03
  3.692635e+01    7.872842e+03
  3.701790e+01    7.869900e+03
  3.710944e+01    7.895639e+03
  3.720098e+01    7.940917e+03
  3.729252e+01    8.018389e+03
  3.738406e+01    8.122385e+03
  3.747560e+01    8.345490e+03
  3.756714e+01    8.892821e+03
  3.765869e+01    1.086516e+04
  3.775023e+01    2.787321e+04
  3.784177e+01    7.675476e+04
  3.793331e+01    2.514163e+04
  3.802485e+01    1.074985e+04
  3.811639e+01    8.935051e+03
  3.820793e+01    8.402109e+03
  3.829948e+01    8.175152e+03
  3.839102e+01    8.056341e+03
  3.848256e+01    8.010231e+03
  3.857410e+01    7.988837e+03
  3.866564e+01    7.990484e+03
  3.875718e+01    7.988808e+03
  3.884872e+01    8.021700e+03
  3.894027e+01    8.410325e+03
  3.903181e+01    1.060680e+04
  3.912335e+01    8.908785e+03
  3.921489e+01    7.969421e+03
  3.930643e+01    7.834180e+03
  3.939797e+01    7.786494e+03
  3.948951e+01    7.742424e+03
  3.958106e+01    7.728743e+03
  3.967260e+01    7.736719e+03
  3.976414e+01    7.708147e+03
  3.985568e+01    7.681633e+03
  3.994722e+01    7.628750e+03
  4.003876e+01    7.595137e+03
  4.013031e+01    7.735646e+03
  4.022185e+01    8.253541e+03
  4.031339e+01    7.697084e+03
  4.040493e+01    7.496622e+03
  4.049647e+01    7.453942e+03
  4.058801e+01    7.437319e+03
  4.067955e+01    7.413921e+03
  4.077110e+01    7.403705e+03
  4.086264e+01    7.406353e+03
  4.095418e+01    7.409232e+03
  4.104572e+01    7.444200e+03
  4.113726e+01    7.526245e+03
  4.122880e+01    7.983972e+03
  4.132034e+01    1.233150e+04
  4.141189e+01    1.307506e+04
  4.150343e+01    8.250864e+03
  4.159497e+01    7.658198e+03
  4.168651e+01    7.576064e+03
  4.177805e+01    7.549405e+03
  4.186959e+01    7.492712e+03
  4.196113e+01    7.445218e+03
  4.205268e+01    7.435493e+03
  4.214422e+01    7.470140e+03
  4.223576e+01    7.552708e+03
  4.232730e+01    7.660452e+03
  4.241884e+01    8.192695e+03
  4.251038e+01    8.992985e+03
  4.260192e+01    7.609659e+03
  4.269347e+01    7.284066e+03
  4.278501e+01    7.209689e+03
  4.287655e+01    7.178240e+03
  4.296809e+01    7.169308e+03
  4.305963e+01    7.159649e+03
  4.315117e+01    7.167099e+03
  4.324272e+01    7.197027e+03
  4.333426e+01    7.286489e+03
  4.342580e+01    7.526539e+03
  4.351734e+01    9.726450e+03
  4.360888e+01    1.316021e+04
  4.370042e+01    8.400161e+03
  4.379196e+01    7.495920e+03
  4.388351e+01    7.527909e+03
  4.397505e+01    7.792404e+03
  4.406659e+01    8.720807e+03
  4.415813e+01    1.283156e+04
  4.424967e+01    2.297405e+04
  4.434121e+01    1.627693e+04
  4.443275e+01    1.019272e+04
  4.452430e+01    1.019787e+04
  4.461584e+01    2.457347e+04
  4.470738e+01    2.726365e+04
  4.479892e+01    1.025999e+04
  4.489046e+01    7.830863e+03
  4.498200e+01    7.381799e+03
  4.507354e+01    7.199471e+03
  4.516509e+01    7.120502e+03
  4.525663e+01    7.077948e+03
  4.534817e+01    7.064320e+03
  4.543971e+01    7.084171e+03
  4.553125e+01    7.272416e+03
  4.562279e+01    8.669208e+03
  4.571433e+01    1.460108e+04
  4.580588e+01    9.622046e+03
  4.589742e+01    7.372039e+03
  4.598896e+01    7.102667e+03
  4.608050e+01    7.056980e+03
  4.617204e+01    7.083118e+03
  4.626358e+01    7.141201e+03
  4.635513e+01    7.099589e+03
  4.644667e+01    7.010911e+03
  4.653821e+01    7.011763e+03
  4.662975e+01    7.218238e+03
  4.672129e+01    8.842297e+03
  4.681283e+01    8.417257e+03
  4.690437e+01    7.336000e+03
  4.699592e+01    7.277036e+03
  4.708746e+01    7.305332e+03
  4.717900e+01    7.293275e+03
  4.727054e+01    7.305754e+03
  4.736208e+01    7.338336e+03
  4.745362e+01    7.488605e+03
  4.754516e+01    7.748966e+03
  4.763671e+01    8.141312e+03
  4.772825e+01    9.037983e+03
  4.781979e+01    8.344588e+03
  4.788844e+01    3.084783e+03

File: wam39b_rampe_3_xrd_000014_integrated.dat
# == pyFAI calibration ==
# Distance Sample to Detector: 0.261615 m
# PONI: 2.023e-01, 2.348e-01 m
# Rotations: -0.026380 0.002005 0.000000 rad
#
# == Fit2d calibration ==
# Distance Sample-beamCenter: 261.707 mm
# Center: x=6119.331, y=5134.776 pix
# Tilt: 1.516 deg  TiltPlanRot: 4.347 deg
#
# Detector Rayonix SX165	 PixelSize= 3.950e-05, 3.950e-05 m
#    Detector has a mask: True
#    Detector has a dark current: False
#    detector has a flat field: False
#
# Wavelength: 1.12713e-10 m
# Mask applied: from detector
# Dark current applied: False
# Flat field applied: False
# Polarization factor: None
# Normalization factor: 1.0
# --> ROCK\\WAM39B_integrated\wam39b_rampe_3_xrd_000014_integrated.dat
#       2th_deg             I
  2.502596e+01    4.996785e+03
  2.511750e+01    2.042411e+04
  2.520905e+01    2.074167e+04
  2.530059e+01    2.080159e+04
  2.539213e+01    2.021880e+04
  2.548367e+01    2.012139e+04
  2.557521e+01    2.009640e+04
  2.566675e+01    2.034382e+04
  2.575829e+01    2.077742e+04
  2.584984e+01    2.102191e+04
  2.594138e+01    2.083071e+04
  2.603292e+01    2.045136e+04
  2.612446e+01    2.007925e+04
  2.621600e+01    1.989984e+04
  2.630754e+01    2.026709e+04
  2.639908e+01    2.302141e+04
  2.649063e+01    3.321454e+04
  2.658217e+01    3.188842e+04
  2.667371e+01    4.556161e+04
  2.676525e+01    3.007484e+04
  2.685679e+01    2.034595e+04
  2.694833e+01    1.824547e+04
  2.703988e+01    1.757323e+04
  2.713142e+01    1.720291e+04
  2.722296e+01    1.690224e+04
  2.731450e+01    1.668992e+04
  2.740604e+01    1.647474e+04
  2.749758e+01    1.633303e+04
  2.758912e+01    1.624033e+04
  2.768067e+01    1.615153e+04
  2.777221e+01    1.610331e+04
  2.786375e+01    1.621311e+04
  2.795529e+01    1.649447e+04
  2.804683e+01    1.785097e+04
  2.813837e+01    2.224209e+04
  2.822991e+01    1.845327e+04
  2.832146e+01    1.626324e+04
  2.841300e+01    1.540694e+04
  2.850454e+01    1.487151e+04
  2.859608e+01    1.450003e+04
  2.868762e+01    1.420442e+04
  2.877916e+01    1.396152e+04
  2.887070e+01    1.375299e+04
  2.896225e+01    1.358615e+04
  2.905379e+01    1.347082e+04
  2.914533e+01    1.343189e+04
  2.923687e+01    1.332304e+04
  2.932841e+01    1.302325e+04
  2.941995e+01    1.275044e+04
  2.951149e+01    1.258419e+04
  2.960304e+01    1.278287e+04
  2.969458e+01    1.425002e+04
  2.978612e+01    1.271431e+04
  2.987766e+01    1.192212e+04
  2.996920e+01    1.173243e+04
  3.006074e+01    1.164054e+04
  3.015228e+01    1.156566e+04
  3.024383e+01    1.151710e+04
  3.033537e+01    1.150294e+04
  3.042691e+01    1.151703e+04
  3.051845e+01    1.163464e+04
  3.060999e+01    1.200980e+04
  3.070153e+01    1.348583e+04
  3.079308e+01    2.055562e+04
  3.088462e+01    4.217121e+04
  3.097616e+01    3.566072e+04
  3.106770e+01    2.030175e+04
  3.115924e+01    2.927754e+04
  3.125078e+01    2.224467e+04
  3.134232e+01    1.249583e+04
  3.143387e+01    1.109715e+04
  3.152541e+01    1.067637e+04
  3.161695e+01    1.047444e+04
  3.170849e+01    1.032968e+04
  3.180003e+01    1.022578e+04
  3.189157e+01    1.013455e+04
  3.198311e+01    1.008412e+04
  3.207466e+01    1.004666e+04
  3.216620e+01    1.002323e+04
  3.225774e+01    1.000168e+04
  3.234928e+01    9.951978e+03
  3.244082e+01    9.878831e+03
  3.253236e+01    1.029761e+04
  3.262390e+01    1.155816e+04
  3.271545e+01    1.005201e+04
  3.280699e+01    9.660091e+03
  3.289853e+01    9.626345e+03
  3.299007e+01    9.552114e+03
  3.308161e+01    9.392820e+03
  3.317315e+01    9.251319e+03
  3.326469e+01    9.176379e+03
  3.335624e+01    9.128979e+03
  3.344778e+01    9.091724e+03
  3.353932e+01    9.065612e+03
  3.363086e+01    9.066788e+03
  3.372240e+01    9.133931e+03
  3.381394e+01    9.562413e+03
  3.390549e+01    1.362402e+04
  3.399703e+01    2.344875e+04
  3.408857e+01    1.208949e+04
  3.418011e+01    9.226707e+03
  3.427165e+01    8.798657e+03
  3.436319e+01    8.640229e+03
  3.445473e+01    8.552681e+03
  3.454628e+01    8.506418e+03
  3.463782e+01    8.475944e+03
  3.472936e+01    8.466729e+03
  3.482090e+01    8.457344e+03
  3.491244e+01    8.486396e+03
  3.500398e+01    8.506607e+03
  3.509552e+01    8.494386e+03
  3.518707e+01    8.367688e+03
  3.527861e+01    8.226304e+03
  3.537015e+01    8.095147e+03
  3.546169e+01    7.993249e+03
  3.555323e+01    7.939654e+03
  3.564477e+01    7.877292e+03
  3.573631e+01    7.849261e+03
  3.582786e+01    7.822905e+03
  3.591940e+01    7.823649e+03
  3.601094e+01    7.820771e+03
  3.610248e+01    7.825140e+03
  3.619402e+01    7.841168e+03
  3.628556e+01    7.878272e+03
  3.637710e+01    7.977770e+03
  3.646865e+01    8.548893e+03
  3.656019e+01    1.286683e+04
  3.665173e+01    1.113576e+04
  3.674327e+01    8.308786e+03
  3.683481e+01    8.000354e+03
  3.692635e+01    7.958204e+03
  3.701790e+01    7.957981e+03
  3.710944e+01    7.984628e+03
  3.720098e+01    8.022454e+03
  3.729252e+01    8.092505e+03
  3.738406e+01    8.208850e+03
  3.747560e+01    8.439624e+03
  3.756714e+01    9.005072e+03
  3.765869e+01    1.105252e+04
  3.775023e+01    2.902460e+04
  3.784177e+01    7.724695e+04
  3.793331e+01    2.477203e+04
  3.802485e+01    1.080789e+04
  3.811639e+01    9.016080e+03
  3.820793e+01    8.484653e+03
  3.829948e+01    8.256112e+03
  3.839102e+01    8.149623e+03
  3.848256e+01    8.097033e+03
  3.857410e+01    8.081406e+03
  3.866564e+01    8.070592e+03
  3.875718e+01    8.072966e+03
  3.884872e+01    8.109028e+03
  3.894027e+01    8.535854e+03
  3.903181e+01    1.072733e+04
  3.912335e+01    8.970670e+03
  3.921489e+01    8.040318e+03
  3.930643e+01    7.912094e+03
  3.939797e+01    7.867446e+03
  3.948951e+01    7.826355e+03
  3.958106e+01    7.816321e+03
  3.967260e+01    7.818720e+03
  3.976414e+01    7.788785e+03
  3.985568e+01    7.765330e+03
  3.994722e+01    7.712088e+03
  4.003876e+01    7.673722e+03
  4.013031e+01    7.815288e+03
  4.022185e+01    8.337462e+03
  4.031339e+01    7.776455e+03
  4.040493e+01    7.567138e+03
  4.049647e+01    7.535418e+03
  4.058801e+01    7.502670e+03
  4.067955e+01    7.494312e+03
  4.077110e+01    7.482972e+03
  4.086264e+01    7.489432e+03
  4.095418e+01    7.487515e+03
  4.104572e+01    7.519371e+03
  4.113726e+01    7.621483e+03
  4.122880e+01    8.096877e+03
  4.132034e+01    1.262923e+04
  4.141189e+01    1.307155e+04
  4.150343e+01    8.301977e+03
  4.159497e+01    7.726929e+03
  4.168651e+01    7.668521e+03
  4.177805e+01    7.625985e+03
  4.186959e+01    7.568869e+03
  4.196113e+01    7.528541e+03
  4.205268e+01    7.517872e+03
  4.214422e+01    7.554606e+03
  4.223576e+01    7.626423e+03
  4.232730e+01    7.751147e+03
  4.241884e+01    8.305854e+03
  4.251038e+01    9.071268e+03
  4.260192e+01    7.674755e+03
  4.269347e+01    7.369236e+03
  4.278501e+01    7.285151e+03
  4.287655e+01    7.250939e+03
  4.296809e+01    7.243565e+03
  4.305963e+01    7.246158e+03
  4.315117e+01    7.252086e+03
  4.324272e+01    7.275368e+03
  4.333426e+01    7.364816e+03
  4.342580e+01    7.612552e+03
  4.351734e+01    9.951530e+03
  4.360888e+01    1.321979e+04
  4.370042e+01    8.435892e+03
  4.379196e+01    7.586874e+03
  4.388351e+01    7.603433e+03
  4.397505e+01    7.887417e+03
  4.406659e+01    8.827684e+03
  4.415813e+01    1.304045e+04
  4.424967e+01    2.324533e+04
  4.434121e+01    1.638179e+04
  4.443275e+01    1.030412e+04
  4.452430e+01    1.039840e+04
  4.461584e+01    2.548560e+04
  4.470738e+01    2.700696e+04
  4.479892e+01    1.023883e+04
  4.489046e+01    7.896882e+03
  4.498200e+01    7.444522e+03
  4.507354e+01    7.274899e+03
  4.516509e+01    7.190427e+03
  4.525663e+01    7.150274e+03
  4.534817e+01    7.141010e+03
  4.543971e+01    7.168211e+03
  4.553125e+01    7.364174e+03
  4.562279e+01    8.846849e+03
  4.571433e+01    1.477347e+04
  4.580588e+01    9.598529e+03
  4.589742e+01    7.438494e+03
  4.598896e+01    7.163782e+03
  4.608050e+01    7.136644e+03
  4.617204e+01    7.171555e+03
  4.626358e+01    7.214270e+03
  4.635513e+01    7.175974e+03
  4.644667e+01    7.087485e+03
  4.653821e+01    7.085082e+03
  4.662975e+01    7.292552e+03
  4.672129e+01    8.994029e+03
  4.681283e+01    8.445863e+03
  4.690437e+01    7.412905e+03
  4.699592e+01    7.349664e+03
  4.708746e+01    7.375158e+03
  4.717900e+01    7.358539e+03
  4.727054e+01    7.372394e+03
  4.736208e+01    7.416142e+03
  4.745362e+01    7.556333e+03
  4.754516e+01    7.848555e+03
  4.763671e+01    8.227855e+03
  4.772825e+01    9.175946e+03
  4.781979e+01    8.407223e+03
  4.788844e+01    3.120636e+03