Folder: heo-xas-xrd/Output/ROCK_XRD/WAM39B_integrated/rampe2 (part 5)

File: wam39b_rampe_2_xrd_000012_integrated.dat
# == pyFAI calibration ==
# Distance Sample to Detector: 0.261615 m
# PONI: 2.023e-01, 2.348e-01 m
# Rotations: -0.026380 0.002005 0.000000 rad
#
# == Fit2d calibration ==
# Distance Sample-beamCenter: 261.707 mm
# Center: x=6119.331, y=5134.776 pix
# Tilt: 1.516 deg  TiltPlanRot: 4.347 deg
#
# Detector Rayonix SX165	 PixelSize= 3.950e-05, 3.950e-05 m
#    Detector has a mask: True
#    Detector has a dark current: False
#    detector has a flat field: False
#
# Wavelength: 1.12713e-10 m
# Mask applied: from detector
# Dark current applied: False
# Flat field applied: False
# Polarization factor: None
# Normalization factor: 1.0
# --> ROCK\\WAM39B_integrated\wam39b_rampe_2_xrd_000012_integrated.dat
#       2th_deg             I
  2.502596e+01    4.924297e+03
  2.511750e+01    2.017095e+04
  2.520905e+01    2.045572e+04
  2.530059e+01    2.060456e+04
  2.539213e+01    2.001580e+04
  2.548367e+01    1.999776e+04
  2.557521e+01    2.011052e+04
  2.566675e+01    2.035841e+04
  2.575829e+01    2.036865e+04
  2.584984e+01    2.018130e+04
  2.594138e+01    2.000132e+04
  2.603292e+01    1.981108e+04
  2.612446e+01    1.993738e+04
  2.621600e+01    2.154669e+04
  2.630754e+01    3.051689e+04
  2.639908e+01    5.159591e+04
  2.649063e+01    4.287650e+04
  2.658217e+01    2.303456e+04
  2.667371e+01    1.916741e+04
  2.676525e+01    1.811904e+04
  2.685679e+01    1.763979e+04
  2.694833e+01    1.730569e+04
  2.703988e+01    1.705501e+04
  2.713142e+01    1.685760e+04
  2.722296e+01    1.664089e+04
  2.731450e+01    1.646150e+04
  2.740604e+01    1.627712e+04
  2.749758e+01    1.618565e+04
  2.758912e+01    1.611651e+04
  2.768067e+01    1.608397e+04
  2.777221e+01    1.616028e+04
  2.786375e+01    1.668353e+04
  2.795529e+01    1.983302e+04
  2.804683e+01    1.987163e+04
  2.813837e+01    1.632356e+04
  2.822991e+01    1.546917e+04
  2.832146e+01    1.506564e+04
  2.841300e+01    1.472638e+04
  2.850454e+01    1.445474e+04
  2.859608e+01    1.425511e+04
  2.868762e+01    1.404849e+04
  2.877916e+01    1.390725e+04
  2.887070e+01    1.381832e+04
  2.896225e+01    1.369775e+04
  2.905379e+01    1.347865e+04
  2.914533e+01    1.320931e+04
  2.923687e+01    1.298035e+04
  2.932841e+01    1.278734e+04
  2.941995e+01    1.275172e+04
  2.951149e+01    1.385615e+04
  2.960304e+01    1.350177e+04
  2.969458e+01    1.218600e+04
  2.978612e+01    1.188467e+04
  2.987766e+01    1.173998e+04
  2.996920e+01    1.165417e+04
  3.006074e+01    1.163836e+04
  3.015228e+01    1.165277e+04
  3.024383e+01    1.171758e+04
  3.033537e+01    1.201131e+04
  3.042691e+01    1.310504e+04
  3.051845e+01    1.930000e+04
  3.060999e+01    5.039398e+04
  3.070153e+01    3.743238e+04
  3.079308e+01    1.683762e+04
  3.088462e+01    1.406134e+04
  3.097616e+01    2.292118e+04
  3.106770e+01    2.673355e+04
  3.115924e+01    1.328965e+04
  3.125078e+01    1.120252e+04
  3.134232e+01    1.072998e+04
  3.143387e+01    1.052674e+04
  3.152541e+01    1.037850e+04
  3.161695e+01    1.026137e+04
  3.170849e+01    1.016902e+04
  3.180003e+01    1.009076e+04
  3.189157e+01    1.002857e+04
  3.198311e+01    9.954486e+03
  3.207466e+01    9.894261e+03
  3.216620e+01    9.847433e+03
  3.225774e+01    9.833654e+03
  3.234928e+01    1.010110e+04
  3.244082e+01    1.148459e+04
  3.253236e+01    1.028515e+04
  3.262390e+01    9.743979e+03
  3.271545e+01    9.665467e+03
  3.280699e+01    9.554880e+03
  3.289853e+01    9.419117e+03
  3.299007e+01    9.305032e+03
  3.308161e+01    9.228963e+03
  3.317315e+01    9.168819e+03
  3.326469e+01    9.129863e+03
  3.335624e+01    9.108644e+03
  3.344778e+01    9.108850e+03
  3.353932e+01    9.160803e+03
  3.363086e+01    9.513679e+03
  3.372240e+01    1.269600e+04
  3.381394e+01    2.336094e+04
  3.390549e+01    1.270130e+04
  3.399703e+01    9.338668e+03
  3.408857e+01    8.865646e+03
  3.418011e+01    8.710028e+03
  3.427165e+01    8.639841e+03
  3.436319e+01    8.597333e+03
  3.445473e+01    8.548558e+03
  3.454628e+01    8.512388e+03
  3.463782e+01    8.488073e+03
  3.472936e+01    8.462258e+03
  3.482090e+01    8.408873e+03
  3.491244e+01    8.339893e+03
  3.500398e+01    8.253268e+03
  3.509552e+01    8.172402e+03
  3.518707e+01    8.124214e+03
  3.527861e+01    8.085539e+03
  3.537015e+01    8.016399e+03
  3.546169e+01    7.959911e+03
  3.555323e+01    7.919856e+03
  3.564477e+01    7.877732e+03
  3.573631e+01    7.853597e+03
  3.582786e+01    7.840918e+03
  3.591940e+01    7.844006e+03
  3.601094e+01    7.865791e+03
  3.610248e+01    7.902902e+03
  3.619402e+01    8.004162e+03
  3.628556e+01    8.632141e+03
  3.637710e+01    1.291025e+04
  3.646865e+01    1.070272e+04
  3.656019e+01    8.290156e+03
  3.665173e+01    8.029044e+03
  3.674327e+01    7.993740e+03
  3.683481e+01    8.008642e+03
  3.692635e+01    8.038938e+03
  3.701790e+01    8.088915e+03
  3.710944e+01    8.179165e+03
  3.720098e+01    8.323533e+03
  3.729252e+01    8.584882e+03
  3.738406e+01    9.207568e+03
  3.747560e+01    1.172365e+04
  3.756714e+01    3.578146e+04
  3.765869e+01    7.232932e+04
  3.775023e+01    1.999180e+04
  3.784177e+01    1.039489e+04
  3.793331e+01    9.004931e+03
  3.802485e+01    8.536663e+03
  3.811639e+01    8.346370e+03
  3.820793e+01    8.220571e+03
  3.829948e+01    8.167974e+03
  3.839102e+01    8.124626e+03
  3.848256e+01    8.113143e+03
  3.857410e+01    8.136431e+03
  3.866564e+01    8.198851e+03
  3.875718e+01    8.877502e+03
  3.884872e+01    1.064709e+04
  3.894027e+01    8.650938e+03
  3.903181e+01    8.132132e+03
  3.912335e+01    8.036611e+03
  3.921489e+01    7.998651e+03
  3.930643e+01    7.955562e+03
  3.939797e+01    7.946275e+03
  3.948951e+01    7.923319e+03
  3.958106e+01    7.869088e+03
  3.967260e+01    7.826285e+03
  3.976414e+01    7.789031e+03
  3.985568e+01    7.810534e+03
  3.994722e+01    8.088546e+03
  4.003876e+01    8.321596e+03
  4.013031e+01    7.811023e+03
  4.022185e+01    7.717919e+03
  4.031339e+01    7.683807e+03
  4.040493e+01    7.672115e+03
  4.049647e+01    7.641906e+03
  4.058801e+01    7.632159e+03
  4.067955e+01    7.624126e+03
  4.077110e+01    7.646745e+03
  4.086264e+01    7.686270e+03
  4.095418e+01    7.824816e+03
  4.104572e+01    8.844079e+03
  4.113726e+01    1.465725e+04
  4.122880e+01    1.058315e+04
  4.132034e+01    8.029852e+03
  4.141189e+01    7.745776e+03
  4.150343e+01    7.665551e+03
  4.159497e+01    7.620434e+03
  4.168651e+01    7.606193e+03
  4.177805e+01    7.566736e+03
  4.186959e+01    7.550315e+03
  4.196113e+01    7.553343e+03
  4.205268e+01    7.576792e+03
  4.214422e+01    7.701301e+03
  4.223576e+01    8.798445e+03
  4.232730e+01    8.374618e+03
  4.241884e+01    7.573302e+03
  4.251038e+01    7.479386e+03
  4.260192e+01    7.433614e+03
  4.269347e+01    7.433198e+03
  4.278501e+01    7.421468e+03
  4.287655e+01    7.415969e+03
  4.296809e+01    7.440175e+03
  4.305963e+01    7.501932e+03
  4.315117e+01    7.615558e+03
  4.324272e+01    8.271468e+03
  4.333426e+01    1.294958e+04
  4.342580e+01    1.070248e+04
  4.351734e+01    8.067577e+03
  4.360888e+01    8.046951e+03
  4.370042e+01    9.195969e+03
  4.379196e+01    1.846735e+04
  4.388351e+01    2.442387e+04
  4.397505e+01    1.181711e+04
  4.406659e+01    8.622379e+03
  4.415813e+01    8.214949e+03
  4.424967e+01    8.753950e+03
  4.434121e+01    1.453449e+04
  4.443275e+01    3.314256e+04
  4.452430e+01    1.436770e+04
  4.461584e+01    8.481913e+03
  4.470738e+01    7.693344e+03
  4.479892e+01    7.466150e+03
  4.489046e+01    7.356754e+03
  4.498200e+01    7.333978e+03
  4.507354e+01    7.304375e+03
  4.516509e+01    7.314428e+03
  4.525663e+01    7.410139e+03
  4.534817e+01    7.966182e+03
  4.543971e+01    1.273424e+04
  4.553125e+01    1.191549e+04
  4.562279e+01    7.805243e+03
  4.571433e+01    7.302586e+03
  4.580588e+01    7.204347e+03
  4.589742e+01    7.160979e+03
  4.598896e+01    7.118794e+03
  4.608050e+01    7.080618e+03
  4.617204e+01    7.072067e+03
  4.626358e+01    7.104136e+03
  4.635513e+01    7.210724e+03
  4.644667e+01    8.255685e+03
  4.653821e+01    9.074653e+03
  4.662975e+01    7.480640e+03
  4.672129e+01    7.236397e+03
  4.681283e+01    7.196244e+03
  4.690437e+01    7.197310e+03
  4.699592e+01    7.214269e+03
  4.708746e+01    7.281205e+03
  4.717900e+01    7.327913e+03
  4.727054e+01    7.410141e+03
  4.736208e+01    7.592537e+03
  4.745362e+01    8.393957e+03
  4.754516e+01    9.254265e+03
  4.763671e+01    8.396267e+03
  4.772825e+01    8.054729e+03
  4.781979e+01    7.636847e+03
  4.788844e+01    3.072217e+03

File: wam39b_rampe_2_xrd_000013_integrated.dat
# == pyFAI calibration ==
# Distance Sample to Detector: 0.261615 m
# PONI: 2.023e-01, 2.348e-01 m
# Rotations: -0.026380 0.002005 0.000000 rad
#
# == Fit2d calibration ==
# Distance Sample-beamCenter: 261.707 mm
# Center: x=6119.331, y=5134.776 pix
# Tilt: 1.516 deg  TiltPlanRot: 4.347 deg
#
# Detector Rayonix SX165	 PixelSize= 3.950e-05, 3.950e-05 m
#    Detector has a mask: True
#    Detector has a dark current: False
#    detector has a flat field: False
#
# Wavelength: 1.12713e-10 m
# Mask applied: from detector
# Dark current applied: False
# Flat field applied: False
# Polarization factor: None
# Normalization factor: 1.0
# --> ROCK\\WAM39B_integrated\wam39b_rampe_2_xrd_000013_integrated.dat
#       2th_deg             I
  2.502596e+01    4.520905e+03
  2.511750e+01    1.860046e+04
  2.520905e+01    1.886481e+04
  2.530059e+01    1.897123e+04
  2.539213e+01    1.847094e+04
  2.548367e+01    1.844682e+04
  2.557521e+01    1.861242e+04
  2.566675e+01    1.887089e+04
  2.575829e+01    1.887506e+04
  2.584984e+01    1.866183e+04
  2.594138e+01    1.844075e+04
  2.603292e+01    1.827595e+04
  2.612446e+01    1.847819e+04
  2.621600e+01    2.022041e+04
  2.630754e+01    2.983988e+04
  2.639908e+01    4.869332e+04
  2.649063e+01    3.691721e+04
  2.658217e+01    2.066852e+04
  2.667371e+01    1.756496e+04
  2.676525e+01    1.666996e+04
  2.685679e+01    1.624887e+04
  2.694833e+01    1.595762e+04
  2.703988e+01    1.572421e+04
  2.713142e+01    1.554783e+04
  2.722296e+01    1.534232e+04
  2.731450e+01    1.519822e+04
  2.740604e+01    1.502036e+04
  2.749758e+01    1.493402e+04
  2.758912e+01    1.487618e+04
  2.768067e+01    1.487558e+04
  2.777221e+01    1.496080e+04
  2.786375e+01    1.558645e+04
  2.795529e+01    1.887767e+04
  2.804683e+01    1.789630e+04
  2.813837e+01    1.499050e+04
  2.822991e+01    1.426043e+04
  2.832146e+01    1.389232e+04
  2.841300e+01    1.357730e+04
  2.850454e+01    1.333593e+04
  2.859608e+01    1.314668e+04
  2.868762e+01    1.295896e+04
  2.877916e+01    1.283405e+04
  2.887070e+01    1.275853e+04
  2.896225e+01    1.263830e+04
  2.905379e+01    1.244560e+04
  2.914533e+01    1.218490e+04
  2.923687e+01    1.197467e+04
  2.932841e+01    1.179708e+04
  2.941995e+01    1.182867e+04
  2.951149e+01    1.299533e+04
  2.960304e+01    1.226225e+04
  2.969458e+01    1.122148e+04
  2.978612e+01    1.096791e+04
  2.987766e+01    1.084455e+04
  2.996920e+01    1.077824e+04
  3.006074e+01    1.076028e+04
  3.015228e+01    1.078438e+04
  3.024383e+01    1.084070e+04
  3.033537e+01    1.115144e+04
  3.042691e+01    1.234923e+04
  3.051845e+01    1.940501e+04
  3.060999e+01    4.878083e+04
  3.070153e+01    3.104731e+04
  3.079308e+01    1.489897e+04
  3.088462e+01    1.322080e+04
  3.097616e+01    2.331342e+04
  3.106770e+01    2.267366e+04
  3.115924e+01    1.181354e+04
  3.125078e+01    1.027558e+04
  3.134232e+01    9.891368e+03
  3.143387e+01    9.719761e+03
  3.152541e+01    9.590240e+03
  3.161695e+01    9.486901e+03
  3.170849e+01    9.402590e+03
  3.180003e+01    9.324571e+03
  3.189157e+01    9.266881e+03
  3.198311e+01    9.220749e+03
  3.207466e+01    9.160518e+03
  3.216620e+01    9.107134e+03
  3.225774e+01    9.102644e+03
  3.234928e+01    9.456655e+03
  3.244082e+01    1.064145e+04
  3.253236e+01    9.384539e+03
  3.262390e+01    9.007489e+03
  3.271545e+01    8.943085e+03
  3.280699e+01    8.827168e+03
  3.289853e+01    8.714302e+03
  3.299007e+01    8.590759e+03
  3.308161e+01    8.534252e+03
  3.317315e+01    8.479193e+03
  3.326469e+01    8.449413e+03
  3.335624e+01    8.425593e+03
  3.344778e+01    8.430679e+03
  3.353932e+01    8.500613e+03
  3.363086e+01    8.914076e+03
  3.372240e+01    1.291045e+04
  3.381394e+01    2.121669e+04
  3.390549e+01    1.087192e+04
  3.399703e+01    8.543147e+03
  3.408857e+01    8.177235e+03
  3.418011e+01    8.060021e+03
  3.427165e+01    7.989370e+03
  3.436319e+01    7.952481e+03
  3.445473e+01    7.910835e+03
  3.454628e+01    7.886597e+03
  3.463782e+01    7.864558e+03
  3.472936e+01    7.832727e+03
  3.482090e+01    7.783687e+03
  3.491244e+01    7.726895e+03
  3.500398e+01    7.642334e+03
  3.509552e+01    7.579465e+03
  3.518707e+01    7.513077e+03
  3.527861e+01    7.483200e+03
  3.537015e+01    7.415679e+03
  3.546169e+01    7.367784e+03
  3.555323e+01    7.336648e+03
  3.564477e+01    7.298124e+03
  3.573631e+01    7.279891e+03
  3.582786e+01    7.266469e+03
  3.591940e+01    7.264357e+03
  3.601094e+01    7.289014e+03
  3.610248e+01    7.323751e+03
  3.619402e+01    7.447481e+03
  3.628556e+01    8.251199e+03
  3.637710e+01    1.241009e+04
  3.646865e+01    9.293927e+03
  3.656019e+01    7.606816e+03
  3.665173e+01    7.424902e+03
  3.674327e+01    7.404533e+03
  3.683481e+01    7.409704e+03
  3.692635e+01    7.443225e+03
  3.701790e+01    7.491243e+03
  3.710944e+01    7.585467e+03
  3.720098e+01    7.728281e+03
  3.729252e+01    7.992862e+03
  3.738406e+01    8.687795e+03
  3.747560e+01    1.179341e+04
  3.756714e+01    4.185936e+04
  3.765869e+01    6.041643e+04
  3.775023e+01    1.561285e+04
  3.784177e+01    9.307238e+03
  3.793331e+01    8.256795e+03
  3.802485e+01    7.859439e+03
  3.811639e+01    7.707339e+03
  3.820793e+01    7.596879e+03
  3.829948e+01    7.550706e+03
  3.839102e+01    7.524370e+03
  3.848256e+01    7.512785e+03
  3.857410e+01    7.532702e+03
  3.866564e+01    7.619719e+03
  3.875718e+01    8.500355e+03
  3.884872e+01    9.682292e+03
  3.894027e+01    7.846529e+03
  3.903181e+01    7.498232e+03
  3.912335e+01    7.427942e+03
  3.921489e+01    7.389271e+03
  3.930643e+01    7.363774e+03
  3.939797e+01    7.345606e+03
  3.948951e+01    7.318702e+03
  3.958106e+01    7.279251e+03
  3.967260e+01    7.231859e+03
  3.976414e+01    7.206376e+03
  3.985568e+01    7.234972e+03
  3.994722e+01    7.580763e+03
  4.003876e+01    7.619802e+03
  4.013031e+01    7.208190e+03
  4.022185e+01    7.126179e+03
  4.031339e+01    7.106673e+03
  4.040493e+01    7.094136e+03
  4.049647e+01    7.077518e+03
  4.058801e+01    7.067603e+03
  4.067955e+01    7.062953e+03
  4.077110e+01    7.085055e+03
  4.086264e+01    7.126772e+03
  4.095418e+01    7.302523e+03
  4.104572e+01    8.705519e+03
  4.113726e+01    1.384652e+04
  4.122880e+01    9.019173e+03
  4.132034e+01    7.371871e+03
  4.141189e+01    7.162043e+03
  4.150343e+01    7.089566e+03
  4.159497e+01    7.056902e+03
  4.168651e+01    7.035875e+03
  4.177805e+01    7.001200e+03
  4.186959e+01    6.995125e+03
  4.196113e+01    7.006288e+03
  4.205268e+01    7.032410e+03
  4.214422e+01    7.199773e+03
  4.223576e+01    8.331795e+03
  4.232730e+01    7.541682e+03
  4.241884e+01    6.984117e+03
  4.251038e+01    6.919678e+03
  4.260192e+01    6.882491e+03
  4.269347e+01    6.881985e+03
  4.278501e+01    6.863896e+03
  4.287655e+01    6.865809e+03
  4.296809e+01    6.896796e+03
  4.305963e+01    6.955331e+03
  4.315117e+01    7.085083e+03
  4.324272e+01    8.019810e+03
  4.333426e+01    1.254125e+04
  4.342580e+01    9.097248e+03
  4.351734e+01    7.408337e+03
  4.360888e+01    7.524197e+03
  4.370042e+01    9.017690e+03
  4.379196e+01    1.962822e+04
  4.388351e+01    2.085354e+04
  4.397505e+01    1.008579e+04
  4.406659e+01    7.855750e+03
  4.415813e+01    7.628686e+03
  4.424967e+01    8.394459e+03
  4.434121e+01    1.651298e+04
  4.443275e+01    2.940605e+04
  4.452430e+01    1.126428e+04
  4.461584e+01    7.653715e+03
  4.470738e+01    7.069329e+03
  4.479892e+01    6.893246e+03
  4.489046e+01    6.802928e+03
  4.498200e+01    6.771932e+03
  4.507354e+01    6.752252e+03
  4.516509e+01    6.781670e+03
  4.525663e+01    6.892097e+03
  4.534817e+01    7.683676e+03
  4.543971e+01    1.284170e+04
  4.553125e+01    9.915809e+03
  4.562279e+01    7.064482e+03
  4.571433e+01    6.739826e+03
  4.580588e+01    6.659425e+03
  4.589742e+01    6.623805e+03
  4.598896e+01    6.584684e+03
  4.608050e+01    6.548395e+03
  4.617204e+01    6.539391e+03
  4.626358e+01    6.587581e+03
  4.635513e+01    6.745577e+03
  4.644667e+01    8.041698e+03
  4.653821e+01    8.076540e+03
  4.662975e+01    6.842213e+03
  4.672129e+01    6.689550e+03
  4.681283e+01    6.658464e+03
  4.690437e+01    6.650055e+03
  4.699592e+01    6.677252e+03
  4.708746e+01    6.725363e+03
  4.717900e+01    6.775151e+03
  4.727054e+01    6.862126e+03
  4.736208e+01    7.059814e+03
  4.745362e+01    8.045337e+03
  4.754516e+01    8.342410e+03
  4.763671e+01    7.692934e+03
  4.772825e+01    7.420006e+03
  4.781979e+01    7.071050e+03
  4.788844e+01    2.839055e+03

File: wam39b_rampe_2_xrd_000014_integrated.dat
# == pyFAI calibration ==
# Distance Sample to Detector: 0.261615 m
# PONI: 2.023e-01, 2.348e-01 m
# Rotations: -0.026380 0.002005 0.000000 rad
#
# == Fit2d calibration ==
# Distance Sample-beamCenter: 261.707 mm
# Center: x=6119.331, y=5134.776 pix
# Tilt: 1.516 deg  TiltPlanRot: 4.347 deg
#
# Detector Rayonix SX165	 PixelSize= 3.950e-05, 3.950e-05 m
#    Detector has a mask: True
#    Detector has a dark current: False
#    detector has a flat field: False
#
# Wavelength: 1.12713e-10 m
# Mask applied: from detector
# Dark current applied: False
# Flat field applied: False
# Polarization factor: None
# Normalization factor: 1.0
# --> ROCK\\WAM39B_integrated\wam39b_rampe_2_xrd_000014_integrated.dat
#       2th_deg             I
  2.502596e+01    4.165218e+03
  2.511750e+01    1.714670e+04
  2.520905e+01    1.740802e+04
  2.530059e+01    1.750938e+04
  2.539213e+01    1.705857e+04
  2.548367e+01    1.708616e+04
  2.557521e+01    1.725372e+04
  2.566675e+01    1.751032e+04
  2.575829e+01    1.749560e+04
  2.584984e+01    1.725702e+04
  2.594138e+01    1.703195e+04
  2.603292e+01    1.687842e+04
  2.612446e+01    1.716614e+04
  2.621600e+01    1.918286e+04
  2.630754e+01    2.976767e+04
  2.639908e+01    4.625582e+04
  2.649063e+01    3.131377e+04
  2.658217e+01    1.853109e+04
  2.667371e+01    1.611693e+04
  2.676525e+01    1.534538e+04
  2.685679e+01    1.499073e+04
  2.694833e+01    1.471250e+04
  2.703988e+01    1.450558e+04
  2.713142e+01    1.434655e+04
  2.722296e+01    1.416604e+04
  2.731450e+01    1.401868e+04
  2.740604e+01    1.387370e+04
  2.749758e+01    1.378674e+04
  2.758912e+01    1.376723e+04
  2.768067e+01    1.376463e+04
  2.777221e+01    1.389482e+04
  2.786375e+01    1.465898e+04
  2.795529e+01    1.806885e+04
  2.804683e+01    1.602961e+04
  2.813837e+01    1.376731e+04
  2.822991e+01    1.315673e+04
  2.832146e+01    1.281804e+04
  2.841300e+01    1.252404e+04
  2.850454e+01    1.231731e+04
  2.859608e+01    1.213680e+04
  2.868762e+01    1.196601e+04
  2.877916e+01    1.186883e+04
  2.887070e+01    1.179108e+04
  2.896225e+01    1.169798e+04
  2.905379e+01    1.148443e+04
  2.914533e+01    1.124921e+04
  2.923687e+01    1.105958e+04
  2.932841e+01    1.089902e+04
  2.941995e+01    1.100770e+04
  2.951149e+01    1.220348e+04
  2.960304e+01    1.111670e+04
  2.969458e+01    1.034132e+04
  2.978612e+01    1.013259e+04
  2.987766e+01    1.002086e+04
  2.996920e+01    9.961282e+03
  3.006074e+01    9.963849e+03
  3.015228e+01    9.977789e+03
  3.024383e+01    1.005972e+04
  3.033537e+01    1.040697e+04
  3.042691e+01    1.176547e+04
  3.051845e+01    2.031181e+04
  3.060999e+01    4.672121e+04
  3.070153e+01    2.530083e+04
  3.079308e+01    1.319887e+04
  3.088462e+01    1.266309e+04
  3.097616e+01    2.394463e+04
  3.106770e+01    1.867462e+04
  3.115924e+01    1.054282e+04
  3.125078e+01    9.438836e+03
  3.134232e+01    9.127284e+03
  3.143387e+01    8.970723e+03
  3.152541e+01    8.860488e+03
  3.161695e+01    8.757237e+03
  3.170849e+01    8.693729e+03
  3.180003e+01    8.634526e+03
  3.189157e+01    8.569830e+03
  3.198311e+01    8.522776e+03
  3.207466e+01    8.469729e+03
  3.216620e+01    8.428753e+03
  3.225774e+01    8.430794e+03
  3.234928e+01    8.919820e+03
  3.244082e+01    9.787095e+03
  3.253236e+01    8.570435e+03
  3.262390e+01    8.327583e+03
  3.271545e+01    8.259295e+03
  3.280699e+01    8.146133e+03
  3.289853e+01    8.040698e+03
  3.299007e+01    7.952965e+03
  3.308161e+01    7.892753e+03
  3.317315e+01    7.850458e+03
  3.326469e+01    7.817688e+03
  3.335624e+01    7.801514e+03
  3.344778e+01    7.803060e+03
  3.353932e+01    7.900336e+03
  3.363086e+01    8.429826e+03
  3.372240e+01    1.367293e+04
  3.381394e+01    1.855507e+04
  3.390549e+01    9.351281e+03
  3.399703e+01    7.828739e+03
  3.408857e+01    7.551368e+03
  3.418011e+01    7.433418e+03
  3.427165e+01    7.384349e+03
  3.436319e+01    7.354589e+03
  3.445473e+01    7.321709e+03
  3.454628e+01    7.301437e+03
  3.463782e+01    7.276088e+03
  3.472936e+01    7.257398e+03
  3.482090e+01    7.215215e+03
  3.491244e+01    7.153130e+03
  3.500398e+01    7.073572e+03
  3.509552e+01    7.010900e+03
  3.518707e+01    6.962222e+03
  3.527861e+01    6.920097e+03
  3.537015e+01    6.858054e+03
  3.546169e+01    6.830524e+03
  3.555323e+01    6.783455e+03
  3.564477e+01    6.754224e+03
  3.573631e+01    6.734559e+03
  3.582786e+01    6.726522e+03
  3.591940e+01    6.732036e+03
  3.601094e+01    6.753588e+03
  3.610248e+01    6.788836e+03
  3.619402e+01    6.942335e+03
  3.628556e+01    8.083322e+03
  3.637710e+01    1.168975e+04
  3.646865e+01    8.053479e+03
  3.656019e+01    7.002413e+03
  3.665173e+01    6.863748e+03
  3.674327e+01    6.853647e+03
  3.683481e+01    6.873910e+03
  3.692635e+01    6.910709e+03
  3.701790e+01    6.957728e+03
  3.710944e+01    7.051407e+03
  3.720098e+01    7.197273e+03
  3.729252e+01    7.489392e+03
  3.738406e+01    8.285381e+03
  3.747560e+01    1.256185e+04
  3.756714e+01    5.004671e+04
  3.765869e+01    4.662966e+04
  3.775023e+01    1.229513e+04
  3.784177e+01    8.340969e+03
  3.793331e+01    7.561548e+03
  3.802485e+01    7.250553e+03
  3.811639e+01    7.123119e+03
  3.820793e+01    7.033721e+03
  3.829948e+01    6.995203e+03
  3.839102e+01    6.969674e+03
  3.848256e+01    6.968659e+03
  3.857410e+01    6.993654e+03
  3.866564e+01    7.101594e+03
  3.875718e+01    8.312317e+03
  3.884872e+01    8.682881e+03
  3.894027e+01    7.150511e+03
  3.903181e+01    6.927862e+03
  3.912335e+01    6.886183e+03
  3.921489e+01    6.843919e+03
  3.930643e+01    6.818864e+03
  3.939797e+01    6.818430e+03
  3.948951e+01    6.777587e+03
  3.958106e+01    6.738297e+03
  3.967260e+01    6.706002e+03
  3.976414e+01    6.680669e+03
  3.985568e+01    6.722291e+03
  3.994722e+01    7.138575e+03
  4.003876e+01    6.954069e+03
  4.013031e+01    6.659132e+03
  4.022185e+01    6.611131e+03
  4.031339e+01    6.585444e+03
  4.040493e+01    6.571558e+03
  4.049647e+01    6.560774e+03
  4.058801e+01    6.551662e+03
  4.067955e+01    6.552773e+03
  4.077110e+01    6.566940e+03
  4.086264e+01    6.626729e+03
  4.095418e+01    6.853583e+03
  4.104572e+01    8.963109e+03
  4.113726e+01    1.259107e+04
  4.122880e+01    7.741620e+03
  4.132034e+01    6.778160e+03
  4.141189e+01    6.631238e+03
  4.150343e+01    6.569641e+03
  4.159497e+01    6.545395e+03
  4.168651e+01    6.527895e+03
  4.177805e+01    6.501852e+03
  4.186959e+01    6.491709e+03
  4.196113e+01    6.510384e+03
  4.205268e+01    6.542087e+03
  4.214422e+01    6.814547e+03
  4.223576e+01    7.803510e+03
  4.232730e+01    6.799547e+03
  4.241884e+01    6.455426e+03
  4.251038e+01    6.411859e+03
  4.260192e+01    6.395142e+03
  4.269347e+01    6.381517e+03
  4.278501e+01    6.368147e+03
  4.287655e+01    6.374729e+03
  4.296809e+01    6.410494e+03
  4.305963e+01    6.480461e+03
  4.315117e+01    6.640662e+03
  4.324272e+01    8.088001e+03
  4.333426e+01    1.171119e+04
  4.342580e+01    7.760345e+03
  4.351734e+01    6.842405e+03
  4.360888e+01    7.093468e+03
  4.370042e+01    9.251806e+03
  4.379196e+01    2.077474e+04
  4.388351e+01    1.686499e+04
  4.397505e+01    8.629155e+03
  4.406659e+01    7.200300e+03
  4.415813e+01    7.139303e+03
  4.424967e+01    8.290154e+03
  4.434121e+01    2.003199e+04
  4.443275e+01    2.414211e+04
  4.452430e+01    8.990691e+03
  4.461584e+01    6.921009e+03
  4.470738e+01    6.514336e+03
  4.479892e+01    6.380229e+03
  4.489046e+01    6.306207e+03
  4.498200e+01    6.275122e+03
  4.507354e+01    6.277146e+03
  4.516509e+01    6.570396e+03
  4.525663e+01    6.450381e+03
  4.534817e+01    7.716261e+03
  4.543971e+01    1.247158e+04
  4.553125e+01    8.129974e+03
  4.562279e+01    6.433323e+03
  4.571433e+01    6.231265e+03
  4.580588e+01    6.174664e+03
  4.589742e+01    6.145724e+03
  4.598896e+01    6.110062e+03
  4.608050e+01    6.084102e+03
  4.617204e+01    6.073054e+03
  4.626358e+01    6.115444e+03
  4.635513e+01    6.366024e+03
  4.644667e+01    7.885453e+03
  4.653821e+01    7.095366e+03
  4.662975e+01    6.287250e+03
  4.672129e+01    6.199696e+03
  4.681283e+01    6.180607e+03
  4.690437e+01    6.166671e+03
  4.699592e+01    6.198032e+03
  4.708746e+01    6.249477e+03
  4.717900e+01    6.290134e+03
  4.727054e+01    6.374670e+03
  4.736208e+01    6.622678e+03
  4.745362e+01    7.761882e+03
  4.754516e+01    7.467933e+03
  4.763671e+01    7.078947e+03
  4.772825e+01    6.883258e+03
  4.781979e+01    6.551981e+03
  4.788844e+01    2.645345e+03