Folder: heo-xas-xrd/Output/ROCK_XRD/WAM39B_integrated/rampe1 (part 4)

File: wam39b_rampe_1_xrd_000009_integrated.dat
# == pyFAI calibration ==
# Distance Sample to Detector: 0.261615 m
# PONI: 2.023e-01, 2.348e-01 m
# Rotations: -0.026380 0.002005 0.000000 rad
#
# == Fit2d calibration ==
# Distance Sample-beamCenter: 261.707 mm
# Center: x=6119.331, y=5134.776 pix
# Tilt: 1.516 deg  TiltPlanRot: 4.347 deg
#
# Detector Rayonix SX165	 PixelSize= 3.950e-05, 3.950e-05 m
#    Detector has a mask: True
#    Detector has a dark current: False
#    detector has a flat field: False
#
# Wavelength: 1.12713e-10 m
# Mask applied: from detector
# Dark current applied: False
# Flat field applied: False
# Polarization factor: None
# Normalization factor: 1.0
# --> ROCK\\WAM39B_integrated\wam39b_rampe_1_xrd_000009_integrated.dat
#       2th_deg             I
  2.502596e+01    4.464614e+03
  2.511750e+01    1.836951e+04
  2.520905e+01    1.872320e+04
  2.530059e+01    1.890419e+04
  2.539213e+01    1.857671e+04
  2.548367e+01    1.891007e+04
  2.557521e+01    1.966529e+04
  2.566675e+01    2.064816e+04
  2.575829e+01    2.092191e+04
  2.584984e+01    2.028030e+04
  2.594138e+01    1.959508e+04
  2.603292e+01    1.958462e+04
  2.612446e+01    2.003205e+04
  2.621600e+01    2.101182e+04
  2.630754e+01    2.340965e+04
  2.639908e+01    3.022578e+04
  2.649063e+01    2.711814e+04
  2.658217e+01    2.219007e+04
  2.667371e+01    2.130890e+04
  2.676525e+01    2.082862e+04
  2.685679e+01    2.003876e+04
  2.694833e+01    1.889744e+04
  2.703988e+01    1.777549e+04
  2.713142e+01    1.696197e+04
  2.722296e+01    1.632491e+04
  2.731450e+01    1.591379e+04
  2.740604e+01    1.560809e+04
  2.749758e+01    1.547388e+04
  2.758912e+01    1.541695e+04
  2.768067e+01    1.546815e+04
  2.777221e+01    1.571446e+04
  2.786375e+01    1.640543e+04
  2.795529e+01    1.794902e+04
  2.804683e+01    2.108303e+04
  2.813837e+01    1.829133e+04
  2.822991e+01    1.540003e+04
  2.832146e+01    1.431779e+04
  2.841300e+01    1.369365e+04
  2.850454e+01    1.330514e+04
  2.859608e+01    1.301861e+04
  2.868762e+01    1.274921e+04
  2.877916e+01    1.253213e+04
  2.887070e+01    1.233072e+04
  2.896225e+01    1.213872e+04
  2.905379e+01    1.195272e+04
  2.914533e+01    1.178171e+04
  2.923687e+01    1.164375e+04
  2.932841e+01    1.153747e+04
  2.941995e+01    1.145615e+04
  2.951149e+01    1.172407e+04
  2.960304e+01    1.290625e+04
  2.969458e+01    1.191992e+04
  2.978612e+01    1.110198e+04
  2.987766e+01    1.088002e+04
  2.996920e+01    1.082344e+04
  3.006074e+01    1.081229e+04
  3.015228e+01    1.083430e+04
  3.024383e+01    1.088201e+04
  3.033537e+01    1.101039e+04
  3.042691e+01    1.121502e+04
  3.051845e+01    1.153779e+04
  3.060999e+01    1.201942e+04
  3.070153e+01    1.278324e+04
  3.079308e+01    1.388860e+04
  3.088462e+01    1.536293e+04
  3.097616e+01    1.847818e+04
  3.106770e+01    2.977397e+04
  3.115924e+01    2.563534e+04
  3.125078e+01    1.535344e+04
  3.134232e+01    1.270569e+04
  3.143387e+01    1.161280e+04
  3.152541e+01    1.098511e+04
  3.161695e+01    1.059026e+04
  3.170849e+01    1.031071e+04
  3.180003e+01    1.009500e+04
  3.189157e+01    9.945629e+03
  3.198311e+01    9.808274e+03
  3.207466e+01    9.693122e+03
  3.216620e+01    9.579116e+03
  3.225774e+01    9.492652e+03
  3.234928e+01    9.463148e+03
  3.244082e+01    9.924539e+03
  3.253236e+01    1.076764e+04
  3.262390e+01    9.545226e+03
  3.271545e+01    9.056257e+03
  3.280699e+01    8.907345e+03
  3.289853e+01    8.816598e+03
  3.299007e+01    8.758453e+03
  3.308161e+01    8.701103e+03
  3.317315e+01    8.668805e+03
  3.326469e+01    8.640968e+03
  3.335624e+01    8.633667e+03
  3.344778e+01    8.635254e+03
  3.353932e+01    8.682587e+03
  3.363086e+01    8.846861e+03
  3.372240e+01    9.606088e+03
  3.381394e+01    1.447639e+04
  3.390549e+01    2.100107e+04
  3.399703e+01    1.192473e+04
  3.408857e+01    9.183050e+03
  3.418011e+01    8.696569e+03
  3.427165e+01    8.535633e+03
  3.436319e+01    8.422879e+03
  3.445473e+01    8.301977e+03
  3.454628e+01    8.198792e+03
  3.463782e+01    8.121704e+03
  3.472936e+01    8.082420e+03
  3.482090e+01    8.075545e+03
  3.491244e+01    8.124563e+03
  3.500398e+01    8.227600e+03
  3.509552e+01    8.310941e+03
  3.518707e+01    8.219604e+03
  3.527861e+01    8.035405e+03
  3.537015e+01    7.868899e+03
  3.546169e+01    7.757283e+03
  3.555323e+01    7.671169e+03
  3.564477e+01    7.593101e+03
  3.573631e+01    7.569227e+03
  3.582786e+01    7.538375e+03
  3.591940e+01    7.531273e+03
  3.601094e+01    7.530962e+03
  3.610248e+01    7.556701e+03
  3.619402e+01    7.623206e+03
  3.628556e+01    7.808471e+03
  3.637710e+01    8.802420e+03
  3.646865e+01    1.243389e+04
  3.656019e+01    1.013111e+04
  3.665173e+01    8.078418e+03
  3.674327e+01    7.759445e+03
  3.683481e+01    7.708917e+03
  3.692635e+01    7.708121e+03
  3.701790e+01    7.762660e+03
  3.710944e+01    7.844326e+03
  3.720098e+01    8.020402e+03
  3.729252e+01    8.240864e+03
  3.738406e+01    8.690700e+03
  3.747560e+01    9.810704e+03
  3.756714e+01    1.413489e+04
  3.765869e+01    4.170430e+04
  3.775023e+01    6.415226e+04
  3.784177e+01    2.164475e+04
  3.793331e+01    1.117378e+04
  3.802485e+01    9.128804e+03
  3.811639e+01    8.467942e+03
  3.820793e+01    8.145717e+03
  3.829948e+01    8.005965e+03
  3.839102e+01    7.923700e+03
  3.848256e+01    7.856641e+03
  3.857410e+01    7.814719e+03
  3.866564e+01    7.786405e+03
  3.875718e+01    7.879955e+03
  3.884872e+01    8.674935e+03
  3.894027e+01    9.992958e+03
  3.903181e+01    8.323375e+03
  3.912335e+01    7.737034e+03
  3.921489e+01    7.635526e+03
  3.930643e+01    7.587893e+03
  3.939797e+01    7.554131e+03
  3.948951e+01    7.544680e+03
  3.958106e+01    7.522549e+03
  3.967260e+01    7.503839e+03
  3.976414e+01    7.482005e+03
  3.985568e+01    7.486791e+03
  3.994722e+01    7.547889e+03
  4.003876e+01    7.826742e+03
  4.013031e+01    8.073638e+03
  4.022185e+01    7.705345e+03
  4.031339e+01    7.708532e+03
  4.040493e+01    7.795533e+03
  4.049647e+01    7.817353e+03
  4.058801e+01    7.730823e+03
  4.067955e+01    7.601953e+03
  4.077110e+01    7.507681e+03
  4.086264e+01    7.465144e+03
  4.095418e+01    7.505037e+03
  4.104572e+01    7.714322e+03
  4.113726e+01    8.970502e+03
  4.122880e+01    1.369378e+04
  4.132034e+01    1.078524e+04
  4.141189e+01    8.124377e+03
  4.150343e+01    7.745645e+03
  4.159497e+01    7.648696e+03
  4.168651e+01    7.575571e+03
  4.177805e+01    7.490346e+03
  4.186959e+01    7.454542e+03
  4.196113e+01    7.450238e+03
  4.205268e+01    7.461407e+03
  4.214422e+01    7.493820e+03
  4.223576e+01    7.661690e+03
  4.232730e+01    8.577570e+03
  4.241884e+01    8.329339e+03
  4.251038e+01    7.469264e+03
  4.260192e+01    7.273583e+03
  4.269347e+01    7.201957e+03
  4.278501e+01    7.159325e+03
  4.287655e+01    7.134935e+03
  4.296809e+01    7.139662e+03
  4.305963e+01    7.154968e+03
  4.315117e+01    7.222677e+03
  4.324272e+01    7.404437e+03
  4.333426e+01    8.202857e+03
  4.342580e+01    1.204306e+04
  4.351734e+01    1.096728e+04
  4.360888e+01    8.099347e+03
  4.370042e+01    7.762044e+03
  4.379196e+01    7.883463e+03
  4.388351e+01    8.114285e+03
  4.397505e+01    8.295979e+03
  4.406659e+01    8.559379e+03
  4.415813e+01    8.964294e+03
  4.424967e+01    9.577812e+03
  4.434121e+01    1.081011e+04
  4.443275e+01    1.642341e+04
  4.452430e+01    3.214916e+04
  4.461584e+01    1.874478e+04
  4.470738e+01    1.046452e+04
  4.479892e+01    8.828994e+03
  4.489046e+01    8.198886e+03
  4.498200e+01    7.871582e+03
  4.507354e+01    7.641281e+03
  4.516509e+01    7.516588e+03
  4.525663e+01    7.462908e+03
  4.534817e+01    7.546529e+03
  4.543971e+01    8.172956e+03
  4.553125e+01    1.190542e+04
  4.562279e+01    1.267954e+04
  4.571433e+01    8.429976e+03
  4.580588e+01    7.517724e+03
  4.589742e+01    7.317686e+03
  4.598896e+01    7.243505e+03
  4.608050e+01    7.179953e+03
  4.617204e+01    7.157603e+03
  4.626358e+01    7.147462e+03
  4.635513e+01    7.127961e+03
  4.644667e+01    7.240431e+03
  4.653821e+01    8.019155e+03
  4.662975e+01    9.013566e+03
  4.672129e+01    7.666602e+03
  4.681283e+01    7.294536e+03
  4.690437e+01    7.257357e+03
  4.699592e+01    7.291791e+03
  4.708746e+01    7.257941e+03
  4.717900e+01    7.184493e+03
  4.727054e+01    7.169354e+03
  4.736208e+01    7.208653e+03
  4.745362e+01    7.403007e+03
  4.754516e+01    8.169752e+03
  4.763671e+01    9.103178e+03
  4.772825e+01    8.012825e+03
  4.781979e+01    7.363244e+03
  4.788844e+01    2.982063e+03

File: wam39b_rampe_1_xrd_000010_integrated.dat
# == pyFAI calibration ==
# Distance Sample to Detector: 0.261615 m
# PONI: 2.023e-01, 2.348e-01 m
# Rotations: -0.026380 0.002005 0.000000 rad
#
# == Fit2d calibration ==
# Distance Sample-beamCenter: 261.707 mm
# Center: x=6119.331, y=5134.776 pix
# Tilt: 1.516 deg  TiltPlanRot: 4.347 deg
#
# Detector Rayonix SX165	 PixelSize= 3.950e-05, 3.950e-05 m
#    Detector has a mask: True
#    Detector has a dark current: False
#    detector has a flat field: False
#
# Wavelength: 1.12713e-10 m
# Mask applied: from detector
# Dark current applied: False
# Flat field applied: False
# Polarization factor: None
# Normalization factor: 1.0
# --> ROCK\\WAM39B_integrated\wam39b_rampe_1_xrd_000010_integrated.dat
#       2th_deg             I
  2.502596e+01    5.000935e+03
  2.511750e+01    2.054695e+04
  2.520905e+01    2.089344e+04
  2.530059e+01    2.108183e+04
  2.539213e+01    2.069787e+04
  2.548367e+01    2.096354e+04
  2.557521e+01    2.171567e+04
  2.566675e+01    2.283578e+04
  2.575829e+01    2.326081e+04
  2.584984e+01    2.273508e+04
  2.594138e+01    2.191391e+04
  2.603292e+01    2.180400e+04
  2.612446e+01    2.216203e+04
  2.621600e+01    2.315367e+04
  2.630754e+01    2.525655e+04
  2.639908e+01    3.217714e+04
  2.649063e+01    3.190435e+04
  2.658217e+01    2.516441e+04
  2.667371e+01    2.381278e+04
  2.676525e+01    2.331531e+04
  2.685679e+01    2.250799e+04
  2.694833e+01    2.125672e+04
  2.703988e+01    1.996450e+04
  2.713142e+01    1.899918e+04
  2.722296e+01    1.826672e+04
  2.731450e+01    1.777789e+04
  2.740604e+01    1.742996e+04
  2.749758e+01    1.725763e+04
  2.758912e+01    1.716934e+04
  2.768067e+01    1.719243e+04
  2.777221e+01    1.743114e+04
  2.786375e+01    1.809142e+04
  2.795529e+01    1.950175e+04
  2.804683e+01    2.290387e+04
  2.813837e+01    2.134076e+04
  2.822991e+01    1.747743e+04
  2.832146e+01    1.609543e+04
  2.841300e+01    1.533271e+04
  2.850454e+01    1.487362e+04
  2.859608e+01    1.455206e+04
  2.868762e+01    1.423645e+04
  2.877916e+01    1.399075e+04
  2.887070e+01    1.375873e+04
  2.896225e+01    1.354587e+04
  2.905379e+01    1.333370e+04
  2.914533e+01    1.314662e+04
  2.923687e+01    1.299240e+04
  2.932841e+01    1.285187e+04
  2.941995e+01    1.276189e+04
  2.951149e+01    1.290162e+04
  2.960304e+01    1.411514e+04
  2.969458e+01    1.362779e+04
  2.978612e+01    1.244038e+04
  2.987766e+01    1.215281e+04
  2.996920e+01    1.206647e+04
  3.006074e+01    1.205593e+04
  3.015228e+01    1.206937e+04
  3.024383e+01    1.210987e+04
  3.033537e+01    1.224045e+04
  3.042691e+01    1.245287e+04
  3.051845e+01    1.276599e+04
  3.060999e+01    1.327325e+04
  3.070153e+01    1.406649e+04
  3.079308e+01    1.522562e+04
  3.088462e+01    1.675766e+04
  3.097616e+01    1.939006e+04
  3.106770e+01    2.968929e+04
  3.115924e+01    3.204976e+04
  3.125078e+01    1.834566e+04
  3.134232e+01    1.448546e+04
  3.143387e+01    1.310372e+04
  3.152541e+01    1.233450e+04
  3.161695e+01    1.185818e+04
  3.170849e+01    1.153537e+04
  3.180003e+01    1.129010e+04
  3.189157e+01    1.110995e+04
  3.198311e+01    1.095259e+04
  3.207466e+01    1.081994e+04
  3.216620e+01    1.068385e+04
  3.225774e+01    1.058984e+04
  3.234928e+01    1.052743e+04
  3.244082e+01    1.081531e+04
  3.253236e+01    1.197234e+04
  3.262390e+01    1.090047e+04
  3.271545e+01    1.014819e+04
  3.280699e+01    9.946833e+03
  3.289853e+01    9.843347e+03
  3.299007e+01    9.761772e+03
  3.308161e+01    9.701018e+03
  3.317315e+01    9.657008e+03
  3.326469e+01    9.627796e+03
  3.335624e+01    9.627440e+03
  3.344778e+01    9.619340e+03
  3.353932e+01    9.646112e+03
  3.363086e+01    9.778847e+03
  3.372240e+01    1.034112e+04
  3.381394e+01    1.379130e+04
  3.390549e+01    2.358605e+04
  3.399703e+01    1.523682e+04
  3.408857e+01    1.052321e+04
  3.418011e+01    9.750291e+03
  3.427165e+01    9.542330e+03
  3.436319e+01    9.403949e+03
  3.445473e+01    9.272094e+03
  3.454628e+01    9.152969e+03
  3.463782e+01    9.062460e+03
  3.472936e+01    9.009233e+03
  3.482090e+01    8.982938e+03
  3.491244e+01    9.024272e+03
  3.500398e+01    9.134530e+03
  3.509552e+01    9.247599e+03
  3.518707e+01    9.199670e+03
  3.527861e+01    8.999399e+03
  3.537015e+01    8.808817e+03
  3.546169e+01    8.659594e+03
  3.555323e+01    8.570980e+03
  3.564477e+01    8.481671e+03
  3.573631e+01    8.436039e+03
  3.582786e+01    8.403516e+03
  3.591940e+01    8.394955e+03
  3.601094e+01    8.395188e+03
  3.610248e+01    8.410845e+03
  3.619402e+01    8.467562e+03
  3.628556e+01    8.615317e+03
  3.637710e+01    9.285391e+03
  3.646865e+01    1.284954e+04
  3.656019e+01    1.247101e+04
  3.665173e+01    9.250658e+03
  3.674327e+01    8.695159e+03
  3.683481e+01    8.601646e+03
  3.692635e+01    8.592034e+03
  3.701790e+01    8.632495e+03
  3.710944e+01    8.714475e+03
  3.720098e+01    8.871097e+03
  3.729252e+01    9.102186e+03
  3.738406e+01    9.497493e+03
  3.747560e+01    1.042574e+04
  3.756714e+01    1.351193e+04
  3.765869e+01    3.247261e+04
  3.775023e+01    7.622495e+04
  3.784177e+01    3.311740e+04
  3.793331e+01    1.380576e+04
  3.802485e+01    1.052318e+04
  3.811639e+01    9.576025e+03
  3.820793e+01    9.156190e+03
  3.829948e+01    8.964680e+03
  3.839102e+01    8.847316e+03
  3.848256e+01    8.779881e+03
  3.857410e+01    8.722338e+03
  3.866564e+01    8.677309e+03
  3.875718e+01    8.736701e+03
  3.884872e+01    9.221497e+03
  3.894027e+01    1.108008e+04
  3.903181e+01    9.747485e+03
  3.912335e+01    8.710241e+03
  3.921489e+01    8.530374e+03
  3.930643e+01    8.476782e+03
  3.939797e+01    8.448497e+03
  3.948951e+01    8.416389e+03
  3.958106e+01    8.395894e+03
  3.967260e+01    8.371998e+03
  3.976414e+01    8.346190e+03
  3.985568e+01    8.350381e+03
  3.994722e+01    8.385808e+03
  4.003876e+01    8.565247e+03
  4.013031e+01    9.047578e+03
  4.022185e+01    8.652942e+03
  4.031339e+01    8.566598e+03
  4.040493e+01    8.654544e+03
  4.049647e+01    8.713986e+03
  4.058801e+01    8.654562e+03
  4.067955e+01    8.515059e+03
  4.077110e+01    8.402774e+03
  4.086264e+01    8.336280e+03
  4.095418e+01    8.343674e+03
  4.104572e+01    8.480427e+03
  4.113726e+01    9.260863e+03
  4.122880e+01    1.370357e+04
  4.132034e+01    1.374696e+04
  4.141189e+01    9.446367e+03
  4.150343e+01    8.701310e+03
  4.159497e+01    8.553001e+03
  4.168651e+01    8.449162e+03
  4.177805e+01    8.358736e+03
  4.186959e+01    8.309688e+03
  4.196113e+01    8.292622e+03
  4.205268e+01    8.305069e+03
  4.214422e+01    8.327366e+03
  4.223576e+01    8.428127e+03
  4.232730e+01    9.131749e+03
  4.241884e+01    9.646883e+03
  4.251038e+01    8.485268e+03
  4.260192e+01    8.145662e+03
  4.269347e+01    8.042771e+03
  4.278501e+01    7.982492e+03
  4.287655e+01    7.953665e+03
  4.296809e+01    7.957763e+03
  4.305963e+01    7.968025e+03
  4.315117e+01    8.012182e+03
  4.324272e+01    8.156645e+03
  4.333426e+01    8.667381e+03
  4.342580e+01    1.167823e+04
  4.351734e+01    1.363192e+04
  4.360888e+01    9.497041e+03
  4.370042e+01    8.673071e+03
  4.379196e+01    8.719976e+03
  4.388351e+01    8.963133e+03
  4.397505e+01    9.205129e+03
  4.406659e+01    9.426120e+03
  4.415813e+01    9.824120e+03
  4.424967e+01    1.042846e+04
  4.434121e+01    1.144463e+04
  4.443275e+01    1.483551e+04
  4.452430e+01    3.145541e+04
  4.461584e+01    2.742188e+04
  4.470738e+01    1.302037e+04
  4.479892e+01    1.016958e+04
  4.489046e+01    9.283641e+03
  4.498200e+01    8.858081e+03
  4.507354e+01    8.575166e+03
  4.516509e+01    8.402409e+03
  4.525663e+01    8.312785e+03
  4.534817e+01    8.354661e+03
  4.543971e+01    8.705299e+03
  4.553125e+01    1.118668e+04
  4.562279e+01    1.527990e+04
  4.571433e+01    1.038354e+04
  4.580588e+01    8.539300e+03
  4.589742e+01    8.199129e+03
  4.598896e+01    8.081680e+03
  4.608050e+01    8.026583e+03
  4.617204e+01    7.982286e+03
  4.626358e+01    7.964274e+03
  4.635513e+01    7.943579e+03
  4.644667e+01    8.003000e+03
  4.653821e+01    8.456061e+03
  4.662975e+01    1.002930e+04
  4.672129e+01    8.990822e+03
  4.681283e+01    8.192453e+03
  4.690437e+01    8.095514e+03
  4.699592e+01    8.135483e+03
  4.708746e+01    8.134908e+03
  4.717900e+01    8.042658e+03
  4.727054e+01    8.011639e+03
  4.736208e+01    8.054733e+03
  4.745362e+01    8.221776e+03
  4.754516e+01    8.783395e+03
  4.763671e+01    1.010268e+04
  4.772825e+01    9.248155e+03
  4.781979e+01    8.252748e+03
  4.788844e+01    3.317859e+03

File: wam39b_rampe_1_xrd_000011_integrated.dat
# == pyFAI calibration ==
# Distance Sample to Detector: 0.261615 m
# PONI: 2.023e-01, 2.348e-01 m
# Rotations: -0.026380 0.002005 0.000000 rad
#
# == Fit2d calibration ==
# Distance Sample-beamCenter: 261.707 mm
# Center: x=6119.331, y=5134.776 pix
# Tilt: 1.516 deg  TiltPlanRot: 4.347 deg
#
# Detector Rayonix SX165	 PixelSize= 3.950e-05, 3.950e-05 m
#    Detector has a mask: True
#    Detector has a dark current: False
#    detector has a flat field: False
#
# Wavelength: 1.12713e-10 m
# Mask applied: from detector
# Dark current applied: False
# Flat field applied: False
# Polarization factor: None
# Normalization factor: 1.0
# --> ROCK\\WAM39B_integrated\wam39b_rampe_1_xrd_000011_integrated.dat
#       2th_deg             I
  2.502596e+01    5.415393e+03
  2.511750e+01    2.222427e+04
  2.520905e+01    2.258949e+04
  2.530059e+01    2.277116e+04
  2.539213e+01    2.237371e+04
  2.548367e+01    2.271132e+04
  2.557521e+01    2.350112e+04
  2.566675e+01    2.468963e+04
  2.575829e+01    2.512038e+04
  2.584984e+01    2.455338e+04
  2.594138e+01    2.367773e+04
  2.603292e+01    2.354631e+04
  2.612446e+01    2.399278e+04
  2.621600e+01    2.510969e+04
  2.630754e+01    2.748529e+04
  2.639908e+01    3.519295e+04
  2.649063e+01    3.407658e+04
  2.658217e+01    2.714185e+04
  2.667371e+01    2.579138e+04
  2.676525e+01    2.517800e+04
  2.685679e+01    2.426212e+04
  2.694833e+01    2.288646e+04
  2.703988e+01    2.151033e+04
  2.713142e+01    2.048540e+04
  2.722296e+01    1.972094e+04
  2.731450e+01    1.920576e+04
  2.740604e+01    1.884035e+04
  2.749758e+01    1.864469e+04
  2.758912e+01    1.856290e+04
  2.768067e+01    1.861785e+04
  2.777221e+01    1.886704e+04
  2.786375e+01    1.962798e+04
  2.795529e+01    2.122050e+04
  2.804683e+01    2.488556e+04
  2.813837e+01    2.276444e+04
  2.822991e+01    1.877257e+04
  2.832146e+01    1.733605e+04
  2.841300e+01    1.654273e+04
  2.850454e+01    1.606166e+04
  2.859608e+01    1.571542e+04
  2.868762e+01    1.539165e+04
  2.877916e+01    1.511792e+04
  2.887070e+01    1.487340e+04
  2.896225e+01    1.463497e+04
  2.905379e+01    1.441183e+04
  2.914533e+01    1.420324e+04
  2.923687e+01    1.404673e+04
  2.932841e+01    1.390127e+04
  2.941995e+01    1.379145e+04
  2.951149e+01    1.398221e+04
  2.960304e+01    1.532352e+04
  2.969458e+01    1.464997e+04
  2.978612e+01    1.342009e+04
  2.987766e+01    1.313824e+04
  2.996920e+01    1.303710e+04
  3.006074e+01    1.302431e+04
  3.015228e+01    1.306051e+04
  3.024383e+01    1.309979e+04
  3.033537e+01    1.325542e+04
  3.042691e+01    1.348980e+04
  3.051845e+01    1.386112e+04
  3.060999e+01    1.442623e+04
  3.070153e+01    1.532140e+04
  3.079308e+01    1.660399e+04
  3.088462e+01    1.826184e+04
  3.097616e+01    2.121902e+04
  3.106770e+01    3.287877e+04
  3.115924e+01    3.370954e+04
  3.125078e+01    1.939725e+04
  3.134232e+01    1.550481e+04
  3.143387e+01    1.408517e+04
  3.152541e+01    1.328091e+04
  3.161695e+01    1.279654e+04
  3.170849e+01    1.245601e+04
  3.180003e+01    1.220051e+04
  3.189157e+01    1.200473e+04
  3.198311e+01    1.182852e+04
  3.207466e+01    1.168448e+04
  3.216620e+01    1.155194e+04
  3.225774e+01    1.143716e+04
  3.234928e+01    1.138644e+04
  3.244082e+01    1.172922e+04
  3.253236e+01    1.294814e+04
  3.262390e+01    1.170659e+04
  3.271545e+01    1.095262e+04
  3.280699e+01    1.075241e+04
  3.289853e+01    1.063741e+04
  3.299007e+01    1.054976e+04
  3.308161e+01    1.048428e+04
  3.317315e+01    1.044181e+04
  3.326469e+01    1.041709e+04
  3.335624e+01    1.040533e+04
  3.344778e+01    1.039655e+04
  3.353932e+01    1.042950e+04
  3.363086e+01    1.058586e+04
  3.372240e+01    1.123725e+04
  3.381394e+01    1.532118e+04
  3.390549e+01    2.551077e+04
  3.399703e+01    1.590187e+04
  3.408857e+01    1.127849e+04
  3.418011e+01    1.051322e+04
  3.427165e+01    1.030841e+04
  3.436319e+01    1.016675e+04
  3.445473e+01    1.001637e+04
  3.454628e+01    9.895013e+03
  3.463782e+01    9.781771e+03
  3.472936e+01    9.736734e+03
  3.482090e+01    9.716247e+03
  3.491244e+01    9.763045e+03
  3.500398e+01    9.863457e+03
  3.509552e+01    9.991076e+03
  3.518707e+01    9.934603e+03
  3.527861e+01    9.719640e+03
  3.537015e+01    9.518493e+03
  3.546169e+01    9.358227e+03
  3.555323e+01    9.255049e+03
  3.564477e+01    9.165007e+03
  3.573631e+01    9.106812e+03
  3.582786e+01    9.077547e+03
  3.591940e+01    9.060663e+03
  3.601094e+01    9.074853e+03
  3.610248e+01    9.095907e+03
  3.619402e+01    9.165042e+03
  3.628556e+01    9.332658e+03
  3.637710e+01    1.012525e+04
  3.646865e+01    1.414135e+04
  3.656019e+01    1.316744e+04
  3.665173e+01    9.921907e+03
  3.674327e+01    9.390967e+03
  3.683481e+01    9.295896e+03
  3.692635e+01    9.291537e+03
  3.701790e+01    9.330050e+03
  3.710944e+01    9.427500e+03
  3.720098e+01    9.606548e+03
  3.729252e+01    9.852336e+03
  3.738406e+01    1.030537e+04
  3.747560e+01    1.136444e+04
  3.756714e+01    1.495381e+04
  3.765869e+01    3.763317e+04
  3.775023e+01    8.165929e+04
  3.784177e+01    3.315466e+04
  3.793331e+01    1.450758e+04
  3.802485e+01    1.127576e+04
  3.811639e+01    1.029854e+04
  3.820793e+01    9.868823e+03
  3.829948e+01    9.672750e+03
  3.839102e+01    9.565202e+03
  3.848256e+01    9.490439e+03
  3.857410e+01    9.434333e+03
  3.866564e+01    9.394104e+03
  3.875718e+01    9.449167e+03
  3.884872e+01    1.004411e+04
  3.894027e+01    1.201249e+04
  3.903181e+01    1.040172e+04
  3.912335e+01    9.402145e+03
  3.921489e+01    9.232127e+03
  3.930643e+01    9.171263e+03
  3.939797e+01    9.129066e+03
  3.948951e+01    9.096929e+03
  3.958106e+01    9.071574e+03
  3.967260e+01    9.051973e+03
  3.976414e+01    9.028073e+03
  3.985568e+01    9.026674e+03
  3.994722e+01    9.072391e+03
  4.003876e+01    9.296970e+03
  4.013031e+01    9.769456e+03
  4.022185e+01    9.335414e+03
  4.031339e+01    9.263639e+03
  4.040493e+01    9.376398e+03
  4.049647e+01    9.430720e+03
  4.058801e+01    9.352040e+03
  4.067955e+01    9.198311e+03
  4.077110e+01    9.072139e+03
  4.086264e+01    9.003364e+03
  4.095418e+01    9.021514e+03
  4.104572e+01    9.193017e+03
  4.113726e+01    1.013118e+04
  4.122880e+01    1.520020e+04
  4.132034e+01    1.441660e+04
  4.141189e+01    1.010152e+04
  4.150343e+01    9.385866e+03
  4.159497e+01    9.233873e+03
  4.168651e+01    9.120219e+03
  4.177805e+01    9.021121e+03
  4.186959e+01    8.986155e+03
  4.196113e+01    8.964969e+03
  4.205268e+01    8.980145e+03
  4.214422e+01    8.996207e+03
  4.223576e+01    9.124366e+03
  4.232730e+01    9.951716e+03
  4.241884e+01    1.035073e+04
  4.251038e+01    9.125340e+03
  4.260192e+01    8.794969e+03
  4.269347e+01    8.698178e+03
  4.278501e+01    8.630648e+03
  4.287655e+01    8.598673e+03
  4.296809e+01    8.595144e+03
  4.305963e+01    8.615994e+03
  4.315117e+01    8.674909e+03
  4.324272e+01    8.837916e+03
  4.333426e+01    9.436331e+03
  4.342580e+01    1.300113e+04
  4.351734e+01    1.440562e+04
  4.360888e+01    1.011931e+04
  4.370042e+01    9.361403e+03
  4.379196e+01    9.449513e+03
  4.388351e+01    9.725712e+03
  4.397505e+01    9.974934e+03
  4.406659e+01    1.024658e+04
  4.415813e+01    1.068718e+04
  4.424967e+01    1.134672e+04
  4.434121e+01    1.247894e+04
  4.443275e+01    1.657463e+04
  4.452430e+01    3.518704e+04
  4.461584e+01    2.782858e+04
  4.470738e+01    1.361092e+04
  4.479892e+01    1.085083e+04
  4.489046e+01    9.980427e+03
  4.498200e+01    9.539036e+03
  4.507354e+01    9.254212e+03
  4.516509e+01    9.071309e+03
  4.525663e+01    8.979394e+03
  4.534817e+01    9.024672e+03
  4.543971e+01    9.476562e+03
  4.553125e+01    1.246191e+04
  4.562279e+01    1.627970e+04
  4.571433e+01    1.091351e+04
  4.580588e+01    9.188091e+03
  4.589742e+01    8.844585e+03
  4.598896e+01    8.717648e+03
  4.608050e+01    8.668063e+03
  4.617204e+01    8.623832e+03
  4.626358e+01    8.598059e+03
  4.635513e+01    8.584140e+03
  4.644667e+01    8.650553e+03
  4.653821e+01    9.219969e+03
  4.662975e+01    1.086612e+04
  4.672129e+01    9.587866e+03
  4.681283e+01    8.830481e+03
  4.690437e+01    8.754486e+03
  4.699592e+01    8.790029e+03
  4.708746e+01    8.771512e+03
  4.717900e+01    8.675660e+03
  4.727054e+01    8.645492e+03
  4.736208e+01    8.697959e+03
  4.745362e+01    8.875027e+03
  4.754516e+01    9.534189e+03
  4.763671e+01    1.095005e+04
  4.772825e+01    9.902287e+03
  4.781979e+01    8.906894e+03
  4.788844e+01    3.580777e+03