Folder: heo-xas-xrd/Output/ROCK_XRD/WAM39B_integrated/rampe1 (part 3)

File: wam39b_rampe_1_xrd_000006_integrated.dat
# == pyFAI calibration ==
# Distance Sample to Detector: 0.261615 m
# PONI: 2.023e-01, 2.348e-01 m
# Rotations: -0.026380 0.002005 0.000000 rad
#
# == Fit2d calibration ==
# Distance Sample-beamCenter: 261.707 mm
# Center: x=6119.331, y=5134.776 pix
# Tilt: 1.516 deg  TiltPlanRot: 4.347 deg
#
# Detector Rayonix SX165	 PixelSize= 3.950e-05, 3.950e-05 m
#    Detector has a mask: True
#    Detector has a dark current: False
#    detector has a flat field: False
#
# Wavelength: 1.12713e-10 m
# Mask applied: from detector
# Dark current applied: False
# Flat field applied: False
# Polarization factor: None
# Normalization factor: 1.0
# --> ROCK\\WAM39B_integrated\wam39b_rampe_1_xrd_000006_integrated.dat
#       2th_deg             I
  2.502596e+01    5.076190e+03
  2.511750e+01    2.078746e+04
  2.520905e+01    2.115803e+04
  2.530059e+01    2.133634e+04
  2.539213e+01    2.090084e+04
  2.548367e+01    2.113371e+04
  2.557521e+01    2.172787e+04
  2.566675e+01    2.281035e+04
  2.575829e+01    2.349084e+04
  2.584984e+01    2.318003e+04
  2.594138e+01    2.232835e+04
  2.603292e+01    2.200623e+04
  2.612446e+01    2.219969e+04
  2.621600e+01    2.303580e+04
  2.630754e+01    2.457608e+04
  2.639908e+01    2.966856e+04
  2.649063e+01    3.417028e+04
  2.658217e+01    2.625952e+04
  2.667371e+01    2.401768e+04
  2.676525e+01    2.352637e+04
  2.685679e+01    2.296461e+04
  2.694833e+01    2.194678e+04
  2.703988e+01    2.067120e+04
  2.713142e+01    1.960054e+04
  2.722296e+01    1.871802e+04
  2.731450e+01    1.815927e+04
  2.740604e+01    1.772225e+04
  2.749758e+01    1.748715e+04
  2.758912e+01    1.737802e+04
  2.768067e+01    1.735471e+04
  2.777221e+01    1.746747e+04
  2.786375e+01    1.793446e+04
  2.795529e+01    1.897528e+04
  2.804683e+01    2.184267e+04
  2.813837e+01    2.316812e+04
  2.822991e+01    1.859537e+04
  2.832146e+01    1.668988e+04
  2.841300e+01    1.575388e+04
  2.850454e+01    1.519061e+04
  2.859608e+01    1.483216e+04
  2.868762e+01    1.450019e+04
  2.877916e+01    1.422112e+04
  2.887070e+01    1.397820e+04
  2.896225e+01    1.375216e+04
  2.905379e+01    1.352981e+04
  2.914533e+01    1.333796e+04
  2.923687e+01    1.317537e+04
  2.932841e+01    1.303279e+04
  2.941995e+01    1.290885e+04
  2.951149e+01    1.292256e+04
  2.960304e+01    1.376391e+04
  2.969458e+01    1.434850e+04
  2.978612e+01    1.280893e+04
  2.987766e+01    1.234438e+04
  2.996920e+01    1.222099e+04
  3.006074e+01    1.218989e+04
  3.015228e+01    1.219092e+04
  3.024383e+01    1.221035e+04
  3.033537e+01    1.230481e+04
  3.042691e+01    1.246486e+04
  3.051845e+01    1.272587e+04
  3.060999e+01    1.310954e+04
  3.070153e+01    1.374484e+04
  3.079308e+01    1.469700e+04
  3.088462e+01    1.602528e+04
  3.097616e+01    1.810381e+04
  3.106770e+01    2.478691e+04
  3.115924e+01    3.609181e+04
  3.125078e+01    2.206420e+04
  3.134232e+01    1.570362e+04
  3.143387e+01    1.377795e+04
  3.152541e+01    1.279100e+04
  3.161695e+01    1.219158e+04
  3.170849e+01    1.181699e+04
  3.180003e+01    1.152191e+04
  3.189157e+01    1.130526e+04
  3.198311e+01    1.114672e+04
  3.207466e+01    1.099703e+04
  3.216620e+01    1.086651e+04
  3.225774e+01    1.075106e+04
  3.234928e+01    1.066715e+04
  3.244082e+01    1.075430e+04
  3.253236e+01    1.176361e+04
  3.262390e+01    1.164827e+04
  3.271545e+01    1.041944e+04
  3.280699e+01    1.011789e+04
  3.289853e+01    9.994774e+03
  3.299007e+01    9.900430e+03
  3.308161e+01    9.835561e+03
  3.317315e+01    9.784518e+03
  3.326469e+01    9.750521e+03
  3.335624e+01    9.740153e+03
  3.344778e+01    9.733460e+03
  3.353932e+01    9.739021e+03
  3.363086e+01    9.826273e+03
  3.372240e+01    1.016581e+04
  3.381394e+01    1.188193e+04
  3.390549e+01    2.100122e+04
  3.399703e+01    1.989207e+04
  3.408857e+01    1.152492e+04
  3.418011e+01    1.004709e+04
  3.427165e+01    9.711230e+03
  3.436319e+01    9.557430e+03
  3.445473e+01    9.419541e+03
  3.454628e+01    9.284778e+03
  3.463782e+01    9.185151e+03
  3.472936e+01    9.129028e+03
  3.482090e+01    9.108179e+03
  3.491244e+01    9.127324e+03
  3.500398e+01    9.207831e+03
  3.509552e+01    9.330502e+03
  3.518707e+01    9.333699e+03
  3.527861e+01    9.153731e+03
  3.537015e+01    8.960380e+03
  3.546169e+01    8.796408e+03
  3.555323e+01    8.689017e+03
  3.564477e+01    8.599887e+03
  3.573631e+01    8.540534e+03
  3.582786e+01    8.507095e+03
  3.591940e+01    8.486395e+03
  3.601094e+01    8.496490e+03
  3.610248e+01    8.508254e+03
  3.619402e+01    8.549390e+03
  3.628556e+01    8.641919e+03
  3.637710e+01    8.987321e+03
  3.646865e+01    1.109002e+04
  3.656019e+01    1.417234e+04
  3.665173e+01    1.017206e+04
  3.674327e+01    8.912639e+03
  3.683481e+01    8.718108e+03
  3.692635e+01    8.686514e+03
  3.701790e+01    8.709678e+03
  3.710944e+01    8.773938e+03
  3.720098e+01    8.902892e+03
  3.729252e+01    9.107241e+03
  3.738406e+01    9.408091e+03
  3.747560e+01    1.006211e+04
  3.756714e+01    1.188820e+04
  3.765869e+01    2.046399e+04
  3.775023e+01    6.515642e+04
  3.784177e+01    5.609947e+04
  3.793331e+01    1.807656e+04
  3.802485e+01    1.148680e+04
  3.811639e+01    9.980250e+03
  3.820793e+01    9.381168e+03
  3.829948e+01    9.122584e+03
  3.839102e+01    8.974300e+03
  3.848256e+01    8.898814e+03
  3.857410e+01    8.834465e+03
  3.866564e+01    8.784622e+03
  3.875718e+01    8.790920e+03
  3.884872e+01    8.973605e+03
  3.894027e+01    1.041244e+04
  3.903181e+01    1.084589e+04
  3.912335e+01    9.055382e+03
  3.921489e+01    8.661139e+03
  3.930643e+01    8.576656e+03
  3.939797e+01    8.537676e+03
  3.948951e+01    8.496287e+03
  3.958106e+01    8.478139e+03
  3.967260e+01    8.452361e+03
  3.976414e+01    8.423140e+03
  3.985568e+01    8.425013e+03
  3.994722e+01    8.452108e+03
  4.003876e+01    8.519538e+03
  4.013031e+01    8.995391e+03
  4.022185e+01    8.951611e+03
  4.031339e+01    8.646509e+03
  4.040493e+01    8.691271e+03
  4.049647e+01    8.763739e+03
  4.058801e+01    8.748340e+03
  4.067955e+01    8.638548e+03
  4.077110e+01    8.508186e+03
  4.086264e+01    8.425839e+03
  4.095418e+01    8.404056e+03
  4.104572e+01    8.464148e+03
  4.113726e+01    8.819534e+03
  4.122880e+01    1.108633e+04
  4.132034e+01    1.570747e+04
  4.141189e+01    1.086453e+04
  4.150343e+01    8.920451e+03
  4.159497e+01    8.666413e+03
  4.168651e+01    8.605676e+03
  4.177805e+01    8.504621e+03
  4.186959e+01    8.432284e+03
  4.196113e+01    8.388077e+03
  4.205268e+01    8.390983e+03
  4.214422e+01    8.389832e+03
  4.223576e+01    8.436809e+03
  4.232730e+01    8.736104e+03
  4.241884e+01    9.878105e+03
  4.251038e+01    9.077518e+03
  4.260192e+01    8.311544e+03
  4.269347e+01    8.147428e+03
  4.278501e+01    8.072977e+03
  4.287655e+01    8.026395e+03
  4.296809e+01    8.024075e+03
  4.305963e+01    8.013022e+03
  4.315117e+01    8.050353e+03
  4.324272e+01    8.130798e+03
  4.333426e+01    8.390226e+03
  4.342580e+01    9.709673e+03
  4.351734e+01    1.422037e+04
  4.360888e+01    1.131398e+04
  4.370042e+01    8.922733e+03
  4.379196e+01    8.707196e+03
  4.388351e+01    8.870238e+03
  4.397505e+01    9.105137e+03
  4.406659e+01    9.281648e+03
  4.415813e+01    9.570182e+03
  4.424967e+01    1.005986e+04
  4.434121e+01    1.084188e+04
  4.443275e+01    1.257413e+04
  4.452430e+01    2.129724e+04
  4.461584e+01    3.602898e+04
  4.470738e+01    1.822371e+04
  4.479892e+01    1.133857e+04
  4.489046e+01    9.816736e+03
  4.498200e+01    9.189740e+03
  4.507354e+01    8.808995e+03
  4.516509e+01    8.556021e+03
  4.525663e+01    8.416571e+03
  4.534817e+01    8.382757e+03
  4.543971e+01    8.521298e+03
  4.553125e+01    9.483930e+03
  4.562279e+01    1.433001e+04
  4.571433e+01    1.337546e+04
  4.580588e+01    9.177524e+03
  4.589742e+01    8.385933e+03
  4.598896e+01    8.189653e+03
  4.608050e+01    8.112783e+03
  4.617204e+01    8.063995e+03
  4.626358e+01    8.047789e+03
  4.635513e+01    8.019576e+03
  4.644667e+01    8.030477e+03
  4.653821e+01    8.203037e+03
  4.662975e+01    9.255445e+03
  4.672129e+01    9.987239e+03
  4.681283e+01    8.536424e+03
  4.690437e+01    8.205146e+03
  4.699592e+01    8.201378e+03
  4.708746e+01    8.247639e+03
  4.717900e+01    8.192107e+03
  4.727054e+01    8.136848e+03
  4.736208e+01    8.143097e+03
  4.745362e+01    8.275021e+03
  4.754516e+01    8.628546e+03
  4.763671e+01    9.597468e+03
  4.772825e+01    9.952933e+03
  4.781979e+01    8.516947e+03
  4.788844e+01    3.348531e+03

File: wam39b_rampe_1_xrd_000007_integrated.dat
# == pyFAI calibration ==
# Distance Sample to Detector: 0.261615 m
# PONI: 2.023e-01, 2.348e-01 m
# Rotations: -0.026380 0.002005 0.000000 rad
#
# == Fit2d calibration ==
# Distance Sample-beamCenter: 261.707 mm
# Center: x=6119.331, y=5134.776 pix
# Tilt: 1.516 deg  TiltPlanRot: 4.347 deg
#
# Detector Rayonix SX165	 PixelSize= 3.950e-05, 3.950e-05 m
#    Detector has a mask: True
#    Detector has a dark current: False
#    detector has a flat field: False
#
# Wavelength: 1.12713e-10 m
# Mask applied: from detector
# Dark current applied: False
# Flat field applied: False
# Polarization factor: None
# Normalization factor: 1.0
# --> ROCK\\WAM39B_integrated\wam39b_rampe_1_xrd_000007_integrated.dat
#       2th_deg             I
  2.502596e+01    5.210542e+03
  2.511750e+01    2.138691e+04
  2.520905e+01    2.175110e+04
  2.530059e+01    2.194810e+04
  2.539213e+01    2.151551e+04
  2.548367e+01    2.177847e+04
  2.557521e+01    2.240904e+04
  2.566675e+01    2.355874e+04
  2.575829e+01    2.419814e+04
  2.584984e+01    2.382575e+04
  2.594138e+01    2.292083e+04
  2.603292e+01    2.264501e+04
  2.612446e+01    2.290651e+04
  2.621600e+01    2.380129e+04
  2.630754e+01    2.549870e+04
  2.639908e+01    3.124352e+04
  2.649063e+01    3.481674e+04
  2.658217e+01    2.676140e+04
  2.667371e+01    2.473803e+04
  2.676525e+01    2.422425e+04
  2.685679e+01    2.357995e+04
  2.694833e+01    2.246421e+04
  2.703988e+01    2.112546e+04
  2.713142e+01    2.002710e+04
  2.722296e+01    1.918502e+04
  2.731450e+01    1.863338e+04
  2.740604e+01    1.821937e+04
  2.749758e+01    1.799353e+04
  2.758912e+01    1.787696e+04
  2.768067e+01    1.786357e+04
  2.777221e+01    1.801102e+04
  2.786375e+01    1.855024e+04
  2.795529e+01    1.971150e+04
  2.804683e+01    2.282880e+04
  2.813837e+01    2.346754e+04
  2.822991e+01    1.886506e+04
  2.832146e+01    1.705121e+04
  2.841300e+01    1.613052e+04
  2.850454e+01    1.558122e+04
  2.859608e+01    1.522940e+04
  2.868762e+01    1.486640e+04
  2.877916e+01    1.462178e+04
  2.887070e+01    1.436781e+04
  2.896225e+01    1.414155e+04
  2.905379e+01    1.391538e+04
  2.914533e+01    1.371687e+04
  2.923687e+01    1.355880e+04
  2.932841e+01    1.339471e+04
  2.941995e+01    1.328689e+04
  2.951149e+01    1.332862e+04
  2.960304e+01    1.429153e+04
  2.969458e+01    1.464319e+04
  2.978612e+01    1.310944e+04
  2.987766e+01    1.267663e+04
  2.996920e+01    1.256382e+04
  3.006074e+01    1.253874e+04
  3.015228e+01    1.254440e+04
  3.024383e+01    1.256558e+04
  3.033537e+01    1.268231e+04
  3.042691e+01    1.285707e+04
  3.051845e+01    1.313210e+04
  3.060999e+01    1.357667e+04
  3.070153e+01    1.426420e+04
  3.079308e+01    1.530388e+04
  3.088462e+01    1.671398e+04
  3.097616e+01    1.897843e+04
  3.106770e+01    2.672050e+04
  3.115924e+01    3.660280e+04
  3.125078e+01    2.157222e+04
  3.134232e+01    1.582329e+04
  3.143387e+01    1.400160e+04
  3.152541e+01    1.305099e+04
  3.161695e+01    1.247726e+04
  3.170849e+01    1.209188e+04
  3.180003e+01    1.182667e+04
  3.189157e+01    1.161369e+04
  3.198311e+01    1.144387e+04
  3.207466e+01    1.130390e+04
  3.216620e+01    1.116030e+04
  3.225774e+01    1.104719e+04
  3.234928e+01    1.096068e+04
  3.244082e+01    1.109773e+04
  3.253236e+01    1.223599e+04
  3.262390e+01    1.181129e+04
  3.271545e+01    1.066663e+04
  3.280699e+01    1.039319e+04
  3.289853e+01    1.027248e+04
  3.299007e+01    1.018073e+04
  3.308161e+01    1.011285e+04
  3.317315e+01    1.007060e+04
  3.326469e+01    1.003015e+04
  3.335624e+01    1.000632e+04
  3.344778e+01    1.001585e+04
  3.353932e+01    1.001969e+04
  3.363086e+01    1.012010e+04
  3.372240e+01    1.051522e+04
  3.381394e+01    1.261399e+04
  3.390549e+01    2.263781e+04
  3.399703e+01    1.921837e+04
  3.408857e+01    1.157032e+04
  3.418011e+01    1.028451e+04
  3.427165e+01    9.965937e+03
  3.436319e+01    9.824332e+03
  3.445473e+01    9.680529e+03
  3.454628e+01    9.549574e+03
  3.463782e+01    9.450845e+03
  3.472936e+01    9.381513e+03
  3.482090e+01    9.349925e+03
  3.491244e+01    9.393295e+03
  3.500398e+01    9.484132e+03
  3.509552e+01    9.603032e+03
  3.518707e+01    9.589915e+03
  3.527861e+01    9.406096e+03
  3.537015e+01    9.199396e+03
  3.546169e+01    9.039672e+03
  3.555323e+01    8.922790e+03
  3.564477e+01    8.842954e+03
  3.573631e+01    8.789950e+03
  3.582786e+01    8.755501e+03
  3.591940e+01    8.735295e+03
  3.601094e+01    8.732965e+03
  3.610248e+01    8.753188e+03
  3.619402e+01    8.797115e+03
  3.628556e+01    8.902596e+03
  3.637710e+01    9.314496e+03
  3.646865e+01    1.187134e+04
  3.656019e+01    1.430405e+04
  3.665173e+01    1.017792e+04
  3.674327e+01    9.121211e+03
  3.683481e+01    8.965138e+03
  3.692635e+01    8.940439e+03
  3.701790e+01    8.967974e+03
  3.710944e+01    9.031269e+03
  3.720098e+01    9.179211e+03
  3.729252e+01    9.386014e+03
  3.738406e+01    9.709670e+03
  3.747560e+01    1.045951e+04
  3.756714e+01    1.257345e+04
  3.765869e+01    2.331208e+04
  3.775023e+01    7.218942e+04
  3.784177e+01    5.118389e+04
  3.793331e+01    1.717179e+04
  3.802485e+01    1.155583e+04
  3.811639e+01    1.017171e+04
  3.820793e+01    9.605980e+03
  3.829948e+01    9.371005e+03
  3.839102e+01    9.222345e+03
  3.848256e+01    9.147896e+03
  3.857410e+01    9.094050e+03
  3.866564e+01    9.035404e+03
  3.875718e+01    9.041734e+03
  3.884872e+01    9.296688e+03
  3.894027e+01    1.096817e+04
  3.903181e+01    1.090846e+04
  3.912335e+01    9.214042e+03
  3.921489e+01    8.905035e+03
  3.930643e+01    8.810564e+03
  3.939797e+01    8.780395e+03
  3.948951e+01    8.745182e+03
  3.958106e+01    8.724830e+03
  3.967260e+01    8.699531e+03
  3.976414e+01    8.678912e+03
  3.985568e+01    8.671013e+03
  3.994722e+01    8.693436e+03
  4.003876e+01    8.790456e+03
  4.013031e+01    9.312223e+03
  4.022185e+01    9.153130e+03
  4.031339e+01    8.889727e+03
  4.040493e+01    8.956995e+03
  4.049647e+01    9.029482e+03
  4.058801e+01    9.009015e+03
  4.067955e+01    8.885575e+03
  4.077110e+01    8.754692e+03
  4.086264e+01    8.664567e+03
  4.095418e+01    8.651360e+03
  4.104572e+01    8.727208e+03
  4.113726e+01    9.177482e+03
  4.122880e+01    1.203659e+04
  4.132034e+01    1.596431e+04
  4.141189e+01    1.071054e+04
  4.150343e+01    9.128388e+03
  4.159497e+01    8.906484e+03
  4.168651e+01    8.840601e+03
  4.177805e+01    8.731811e+03
  4.186959e+01    8.666543e+03
  4.196113e+01    8.628863e+03
  4.205268e+01    8.622356e+03
  4.214422e+01    8.634690e+03
  4.223576e+01    8.707022e+03
  4.232730e+01    9.082703e+03
  4.241884e+01    1.019673e+04
  4.251038e+01    9.168164e+03
  4.260192e+01    8.534405e+03
  4.269347e+01    8.384402e+03
  4.278501e+01    8.307831e+03
  4.287655e+01    8.261246e+03
  4.296809e+01    8.260892e+03
  4.305963e+01    8.265750e+03
  4.315117e+01    8.290309e+03
  4.324272e+01    8.398888e+03
  4.333426e+01    8.703377e+03
  4.342580e+01    1.040602e+04
  4.351734e+01    1.481617e+04
  4.360888e+01    1.106347e+04
  4.370042e+01    9.122958e+03
  4.379196e+01    8.974037e+03
  4.388351e+01    9.187122e+03
  4.397505e+01    9.424435e+03
  4.406659e+01    9.615151e+03
  4.415813e+01    9.933668e+03
  4.424967e+01    1.047767e+04
  4.434121e+01    1.132548e+04
  4.443275e+01    1.337455e+04
  4.452430e+01    2.441508e+04
  4.461584e+01    3.586759e+04
  4.470738e+01    1.694713e+04
  4.479892e+01    1.130485e+04
  4.489046e+01    9.952172e+03
  4.498200e+01    9.372304e+03
  4.507354e+01    9.005983e+03
  4.516509e+01    8.777584e+03
  4.525663e+01    8.650616e+03
  4.534817e+01    8.638940e+03
  4.543971e+01    8.822173e+03
  4.553125e+01    1.007556e+04
  4.562279e+01    1.541193e+04
  4.571433e+01    1.289195e+04
  4.580588e+01    9.241330e+03
  4.589742e+01    8.599258e+03
  4.598896e+01    8.422921e+03
  4.608050e+01    8.340610e+03
  4.617204e+01    8.301174e+03
  4.626358e+01    8.286700e+03
  4.635513e+01    8.257411e+03
  4.644667e+01    8.275167e+03
  4.653821e+01    8.493663e+03
  4.662975e+01    9.807279e+03
  4.672129e+01    1.008642e+04
  4.681283e+01    8.683240e+03
  4.690437e+01    8.432097e+03
  4.699592e+01    8.442627e+03
  4.708746e+01    8.484345e+03
  4.717900e+01    8.421604e+03
  4.727054e+01    8.356979e+03
  4.736208e+01    8.390646e+03
  4.745362e+01    8.522595e+03
  4.754516e+01    8.921826e+03
  4.763671e+01    1.005174e+04
  4.772825e+01    1.011297e+04
  4.781979e+01    8.709181e+03
  4.788844e+01    3.447760e+03

File: wam39b_rampe_1_xrd_000008_integrated.dat
# == pyFAI calibration ==
# Distance Sample to Detector: 0.261615 m
# PONI: 2.023e-01, 2.348e-01 m
# Rotations: -0.026380 0.002005 0.000000 rad
#
# == Fit2d calibration ==
# Distance Sample-beamCenter: 261.707 mm
# Center: x=6119.331, y=5134.776 pix
# Tilt: 1.516 deg  TiltPlanRot: 4.347 deg
#
# Detector Rayonix SX165	 PixelSize= 3.950e-05, 3.950e-05 m
#    Detector has a mask: True
#    Detector has a dark current: False
#    detector has a flat field: False
#
# Wavelength: 1.12713e-10 m
# Mask applied: from detector
# Dark current applied: False
# Flat field applied: False
# Polarization factor: None
# Normalization factor: 1.0
# --> ROCK\\WAM39B_integrated\wam39b_rampe_1_xrd_000008_integrated.dat
#       2th_deg             I
  2.502596e+01    4.696177e+03
  2.511750e+01    1.929292e+04
  2.520905e+01    1.963135e+04
  2.530059e+01    1.981009e+04
  2.539213e+01    1.945730e+04
  2.548367e+01    1.974122e+04
  2.557521e+01    2.044383e+04
  2.566675e+01    2.149304e+04
  2.575829e+01    2.191667e+04
  2.584984e+01    2.136428e+04
  2.594138e+01    2.059564e+04
  2.603292e+01    2.048286e+04
  2.612446e+01    2.086566e+04
  2.621600e+01    2.179756e+04
  2.630754e+01    2.379733e+04
  2.639908e+01    3.033195e+04
  2.649063e+01    2.980379e+04
  2.658217e+01    2.354623e+04
  2.667371e+01    2.232544e+04
  2.676525e+01    2.187441e+04
  2.685679e+01    2.114724e+04
  2.694833e+01    2.001217e+04
  2.703988e+01    1.882117e+04
  2.713142e+01    1.789657e+04
  2.722296e+01    1.719497e+04
  2.731450e+01    1.674541e+04
  2.740604e+01    1.638268e+04
  2.749758e+01    1.621519e+04
  2.758912e+01    1.613427e+04
  2.768067e+01    1.615601e+04
  2.777221e+01    1.636681e+04
  2.786375e+01    1.697805e+04
  2.795529e+01    1.833049e+04
  2.804683e+01    2.161869e+04
  2.813837e+01    2.004772e+04
  2.822991e+01    1.646899e+04
  2.832146e+01    1.514124e+04
  2.841300e+01    1.443061e+04
  2.850454e+01    1.398488e+04
  2.859608e+01    1.367802e+04
  2.868762e+01    1.338448e+04
  2.877916e+01    1.315076e+04
  2.887070e+01    1.293723e+04
  2.896225e+01    1.273249e+04
  2.905379e+01    1.253598e+04
  2.914533e+01    1.235441e+04
  2.923687e+01    1.221976e+04
  2.932841e+01    1.207781e+04
  2.941995e+01    1.199429e+04
  2.951149e+01    1.214955e+04
  2.960304e+01    1.330694e+04
  2.969458e+01    1.280251e+04
  2.978612e+01    1.168892e+04
  2.987766e+01    1.141762e+04
  2.996920e+01    1.134334e+04
  3.006074e+01    1.133189e+04
  3.015228e+01    1.134588e+04
  3.024383e+01    1.137603e+04
  3.033537e+01    1.149545e+04
  3.042691e+01    1.168963e+04
  3.051845e+01    1.197758e+04
  3.060999e+01    1.244301e+04
  3.070153e+01    1.315800e+04
  3.079308e+01    1.421870e+04
  3.088462e+01    1.566172e+04
  3.097616e+01    1.825010e+04
  3.106770e+01    2.828817e+04
  3.115924e+01    3.006871e+04
  3.125078e+01    1.724573e+04
  3.134232e+01    1.367922e+04
  3.143387e+01    1.236002e+04
  3.152541e+01    1.161542e+04
  3.161695e+01    1.116187e+04
  3.170849e+01    1.086039e+04
  3.180003e+01    1.061946e+04
  3.189157e+01    1.045015e+04
  3.198311e+01    1.029739e+04
  3.207466e+01    1.017019e+04
  3.216620e+01    1.004756e+04
  3.225774e+01    9.952431e+03
  3.234928e+01    9.911120e+03
  3.244082e+01    1.019786e+04
  3.253236e+01    1.129192e+04
  3.262390e+01    1.024609e+04
  3.271545e+01    9.527479e+03
  3.280699e+01    9.352491e+03
  3.289853e+01    9.256204e+03
  3.299007e+01    9.176523e+03
  3.308161e+01    9.113013e+03
  3.317315e+01    9.084271e+03
  3.326469e+01    9.047462e+03
  3.335624e+01    9.041082e+03
  3.344778e+01    9.048221e+03
  3.353932e+01    9.065796e+03
  3.363086e+01    9.202812e+03
  3.372240e+01    9.762403e+03
  3.381394e+01    1.318865e+04
  3.390549e+01    2.235260e+04
  3.399703e+01    1.418880e+04
  3.408857e+01    9.878760e+03
  3.418011e+01    9.169307e+03
  3.427165e+01    8.969348e+03
  3.436319e+01    8.836181e+03
  3.445473e+01    8.716235e+03
  3.454628e+01    8.589760e+03
  3.463782e+01    8.504538e+03
  3.472936e+01    8.467171e+03
  3.482090e+01    8.452538e+03
  3.491244e+01    8.497784e+03
  3.500398e+01    8.593146e+03
  3.509552e+01    8.685006e+03
  3.518707e+01    8.631875e+03
  3.527861e+01    8.446153e+03
  3.537015e+01    8.270307e+03
  3.546169e+01    8.141562e+03
  3.555323e+01    8.035565e+03
  3.564477e+01    7.975011e+03
  3.573631e+01    7.927747e+03
  3.582786e+01    7.897827e+03
  3.591940e+01    7.887188e+03
  3.601094e+01    7.891641e+03
  3.610248e+01    7.909897e+03
  3.619402e+01    7.967793e+03
  3.628556e+01    8.105917e+03
  3.637710e+01    8.775484e+03
  3.646865e+01    1.223225e+04
  3.656019e+01    1.168224e+04
  3.665173e+01    8.669192e+03
  3.674327e+01    8.156933e+03
  3.683481e+01    8.078233e+03
  3.692635e+01    8.074634e+03
  3.701790e+01    8.120186e+03
  3.710944e+01    8.192794e+03
  3.720098e+01    8.352694e+03
  3.729252e+01    8.563555e+03
  3.738406e+01    8.949422e+03
  3.747560e+01    9.878253e+03
  3.756714e+01    1.293757e+04
  3.765869e+01    3.182557e+04
  3.775023e+01    7.233359e+04
  3.784177e+01    3.032165e+04
  3.793331e+01    1.284054e+04
  3.802485e+01    9.864204e+03
  3.811639e+01    8.986062e+03
  3.820793e+01    8.590280e+03
  3.829948e+01    8.418506e+03
  3.839102e+01    8.314588e+03
  3.848256e+01    8.244439e+03
  3.857410e+01    8.193918e+03
  3.866564e+01    8.155300e+03
  3.875718e+01    8.210781e+03
  3.884872e+01    8.706262e+03
  3.894027e+01    1.046071e+04
  3.903181e+01    9.111574e+03
  3.912335e+01    8.181110e+03
  3.921489e+01    8.015279e+03
  3.930643e+01    7.960213e+03
  3.939797e+01    7.933928e+03
  3.948951e+01    7.899352e+03
  3.958106e+01    7.876929e+03
  3.967260e+01    7.859692e+03
  3.976414e+01    7.837070e+03
  3.985568e+01    7.837415e+03
  3.994722e+01    7.874319e+03
  4.003876e+01    8.073339e+03
  4.013031e+01    8.511946e+03
  4.022185e+01    8.127667e+03
  4.031339e+01    8.045360e+03
  4.040493e+01    8.129599e+03
  4.049647e+01    8.178733e+03
  4.058801e+01    8.132844e+03
  4.067955e+01    7.996585e+03
  4.077110e+01    7.886484e+03
  4.086264e+01    7.824531e+03
  4.095418e+01    7.842004e+03
  4.104572e+01    7.979761e+03
  4.113726e+01    8.767276e+03
  4.122880e+01    1.310297e+04
  4.132034e+01    1.285501e+04
  4.141189e+01    8.816870e+03
  4.150343e+01    8.149226e+03
  4.159497e+01    8.041218e+03
  4.168651e+01    7.959858e+03
  4.177805e+01    7.866300e+03
  4.186959e+01    7.818410e+03
  4.196113e+01    7.807483e+03
  4.205268e+01    7.807724e+03
  4.214422e+01    7.823309e+03
  4.223576e+01    7.931302e+03
  4.232730e+01    8.635229e+03
  4.241884e+01    9.073018e+03
  4.251038e+01    7.956742e+03
  4.260192e+01    7.638215e+03
  4.269347e+01    7.553714e+03
  4.278501e+01    7.500434e+03
  4.287655e+01    7.474703e+03
  4.296809e+01    7.465163e+03
  4.305963e+01    7.477143e+03
  4.315117e+01    7.525576e+03
  4.324272e+01    7.663971e+03
  4.333426e+01    8.179407e+03
  4.342580e+01    1.118170e+04
  4.351734e+01    1.279580e+04
  4.360888e+01    8.891199e+03
  4.370042e+01    8.149214e+03
  4.379196e+01    8.192914e+03
  4.388351e+01    8.424045e+03
  4.397505e+01    8.621766e+03
  4.406659e+01    8.838675e+03
  4.415813e+01    9.206936e+03
  4.424967e+01    9.786349e+03
  4.434121e+01    1.078173e+04
  4.443275e+01    1.425221e+04
  4.452430e+01    3.037275e+04
  4.461584e+01    2.546685e+04
  4.470738e+01    1.216867e+04
  4.479892e+01    9.570938e+03
  4.489046e+01    8.745597e+03
  4.498200e+01    8.330253e+03
  4.507354e+01    8.071712e+03
  4.516509e+01    7.892591e+03
  4.525663e+01    7.814518e+03
  4.534817e+01    7.847376e+03
  4.543971e+01    8.225509e+03
  4.553125e+01    1.072382e+04
  4.562279e+01    1.442504e+04
  4.571433e+01    9.660031e+03
  4.580588e+01    8.024078e+03
  4.589742e+01    7.702423e+03
  4.598896e+01    7.584928e+03
  4.608050e+01    7.530160e+03
  4.617204e+01    7.495487e+03
  4.626358e+01    7.482618e+03
  4.635513e+01    7.470810e+03
  4.644667e+01    7.524759e+03
  4.653821e+01    7.990292e+03
  4.662975e+01    9.453542e+03
  4.672129e+01    8.410445e+03
  4.681283e+01    7.681312e+03
  4.690437e+01    7.600363e+03
  4.699592e+01    7.639245e+03
  4.708746e+01    7.631302e+03
  4.717900e+01    7.560823e+03
  4.727054e+01    7.530548e+03
  4.736208e+01    7.562304e+03
  4.745362e+01    7.725134e+03
  4.754516e+01    8.272875e+03
  4.763671e+01    9.538909e+03
  4.772825e+01    8.661523e+03
  4.781979e+01    7.765192e+03
  4.788844e+01    3.130844e+03