Folder: heo-xas-xrd/Output/ROCK_XRD/WAM39B_integrated/rampe1 (part 8)

File: wam39b_rampe_1_xrd_000021_integrated.dat
# == pyFAI calibration ==
# Distance Sample to Detector: 0.261615 m
# PONI: 2.023e-01, 2.348e-01 m
# Rotations: -0.026380 0.002005 0.000000 rad
#
# == Fit2d calibration ==
# Distance Sample-beamCenter: 261.707 mm
# Center: x=6119.331, y=5134.776 pix
# Tilt: 1.516 deg  TiltPlanRot: 4.347 deg
#
# Detector Rayonix SX165	 PixelSize= 3.950e-05, 3.950e-05 m
#    Detector has a mask: True
#    Detector has a dark current: False
#    detector has a flat field: False
#
# Wavelength: 1.12713e-10 m
# Mask applied: from detector
# Dark current applied: False
# Flat field applied: False
# Polarization factor: None
# Normalization factor: 1.0
# --> ROCK\\WAM39B_integrated\wam39b_rampe_1_xrd_000021_integrated.dat
#       2th_deg             I
  2.502596e+01    4.309556e+03
  2.511750e+01    1.777773e+04
  2.520905e+01    1.807167e+04
  2.530059e+01    1.821280e+04
  2.539213e+01    1.802606e+04
  2.548367e+01    1.865149e+04
  2.557521e+01    1.960083e+04
  2.566675e+01    2.025804e+04
  2.575829e+01    2.009086e+04
  2.584984e+01    1.875432e+04
  2.594138e+01    1.836183e+04
  2.603292e+01    1.888168e+04
  2.612446e+01    1.999007e+04
  2.621600e+01    2.250476e+04
  2.630754e+01    2.960816e+04
  2.639908e+01    2.964480e+04
  2.649063e+01    2.525929e+04
  2.658217e+01    2.429975e+04
  2.667371e+01    2.257281e+04
  2.676525e+01    2.009884e+04
  2.685679e+01    1.803871e+04
  2.694833e+01    1.674262e+04
  2.703988e+01    1.596804e+04
  2.713142e+01    1.552165e+04
  2.722296e+01    1.517874e+04
  2.731450e+01    1.499988e+04
  2.740604e+01    1.486581e+04
  2.749758e+01    1.487420e+04
  2.758912e+01    1.501887e+04
  2.768067e+01    1.537867e+04
  2.777221e+01    1.629746e+04
  2.786375e+01    1.835447e+04
  2.795529e+01    2.115180e+04
  2.804683e+01    1.810657e+04
  2.813837e+01    1.479209e+04
  2.822991e+01    1.373965e+04
  2.832146e+01    1.326868e+04
  2.841300e+01    1.294245e+04
  2.850454e+01    1.272690e+04
  2.859608e+01    1.254741e+04
  2.868762e+01    1.234388e+04
  2.877916e+01    1.217226e+04
  2.887070e+01    1.200940e+04
  2.896225e+01    1.182346e+04
  2.905379e+01    1.166029e+04
  2.914533e+01    1.150133e+04
  2.923687e+01    1.140106e+04
  2.932841e+01    1.134371e+04
  2.941995e+01    1.156712e+04
  2.951149e+01    1.261731e+04
  2.960304e+01    1.175147e+04
  2.969458e+01    1.091703e+04
  2.978612e+01    1.070621e+04
  2.987766e+01    1.059942e+04
  2.996920e+01    1.055848e+04
  3.006074e+01    1.056278e+04
  3.015228e+01    1.062237e+04
  3.024383e+01    1.071191e+04
  3.033537e+01    1.094949e+04
  3.042691e+01    1.142075e+04
  3.051845e+01    1.239456e+04
  3.060999e+01    1.424428e+04
  3.070153e+01    1.676098e+04
  3.079308e+01    1.869145e+04
  3.088462e+01    2.055566e+04
  3.097616e+01    2.932071e+04
  3.106770e+01    2.321910e+04
  3.115924e+01    1.354416e+04
  3.125078e+01    1.132248e+04
  3.134232e+01    1.053029e+04
  3.143387e+01    1.012100e+04
  3.152541e+01    9.873301e+03
  3.161695e+01    9.711881e+03
  3.170849e+01    9.620216e+03
  3.180003e+01    9.562685e+03
  3.189157e+01    9.557926e+03
  3.198311e+01    9.555020e+03
  3.207466e+01    9.561026e+03
  3.216620e+01    9.519102e+03
  3.225774e+01    9.482779e+03
  3.234928e+01    9.903335e+03
  3.244082e+01    1.048097e+04
  3.253236e+01    9.284863e+03
  3.262390e+01    8.872370e+03
  3.271545e+01    8.734604e+03
  3.280699e+01    8.634506e+03
  3.289853e+01    8.581529e+03
  3.299007e+01    8.518965e+03
  3.308161e+01    8.480256e+03
  3.317315e+01    8.465254e+03
  3.326469e+01    8.469426e+03
  3.335624e+01    8.473076e+03
  3.344778e+01    8.505077e+03
  3.353932e+01    8.691161e+03
  3.363086e+01    9.600046e+03
  3.372240e+01    1.519355e+04
  3.381394e+01    1.923084e+04
  3.390549e+01    1.081731e+04
  3.399703e+01    8.799950e+03
  3.408857e+01    8.419542e+03
  3.418011e+01    8.296458e+03
  3.427165e+01    8.207642e+03
  3.436319e+01    8.094997e+03
  3.445473e+01    7.978625e+03
  3.454628e+01    7.896041e+03
  3.463782e+01    7.857309e+03
  3.472936e+01    7.872510e+03
  3.482090e+01    7.958610e+03
  3.491244e+01    8.181525e+03
  3.500398e+01    8.352114e+03
  3.509552e+01    8.112042e+03
  3.518707e+01    7.821580e+03
  3.527861e+01    7.656405e+03
  3.537015e+01    7.548852e+03
  3.546169e+01    7.474593e+03
  3.555323e+01    7.423420e+03
  3.564477e+01    7.380632e+03
  3.573631e+01    7.369590e+03
  3.582786e+01    7.354689e+03
  3.591940e+01    7.362601e+03
  3.601094e+01    7.393056e+03
  3.610248e+01    7.468098e+03
  3.619402e+01    7.731060e+03
  3.628556e+01    9.157803e+03
  3.637710e+01    1.211510e+04
  3.646865e+01    9.042397e+03
  3.656019e+01    7.786987e+03
  3.665173e+01    7.588511e+03
  3.674327e+01    7.553749e+03
  3.683481e+01    7.568470e+03
  3.692635e+01    7.617184e+03
  3.701790e+01    7.705214e+03
  3.710944e+01    7.886215e+03
  3.720098e+01    8.150082e+03
  3.729252e+01    8.691696e+03
  3.738406e+01    1.014357e+04
  3.747560e+01    1.693192e+04
  3.756714e+01    5.263750e+04
  3.765869e+01    4.954584e+04
  3.775023e+01    1.597764e+04
  3.784177e+01    1.004724e+04
  3.793331e+01    8.690142e+03
  3.802485e+01    8.159116e+03
  3.811639e+01    7.934210e+03
  3.820793e+01    7.834896e+03
  3.829948e+01    7.828686e+03
  3.839102e+01    7.775568e+03
  3.848256e+01    7.705624e+03
  3.857410e+01    7.683366e+03
  3.866564e+01    7.843228e+03
  3.875718e+01    9.029526e+03
  3.884872e+01    9.304827e+03
  3.894027e+01    7.868440e+03
  3.903181e+01    7.581835e+03
  3.912335e+01    7.521466e+03
  3.921489e+01    7.510558e+03
  3.930643e+01    7.501672e+03
  3.939797e+01    7.517225e+03
  3.948951e+01    7.525002e+03
  3.958106e+01    7.536301e+03
  3.967260e+01    7.516452e+03
  3.976414e+01    7.477281e+03
  3.985568e+01    7.500071e+03
  3.994722e+01    7.859418e+03
  4.003876e+01    7.703831e+03
  4.013031e+01    7.467691e+03
  4.022185e+01    7.518123e+03
  4.031339e+01    7.608419e+03
  4.040493e+01    7.583908e+03
  4.049647e+01    7.454060e+03
  4.058801e+01    7.329759e+03
  4.067955e+01    7.267414e+03
  4.077110e+01    7.269333e+03
  4.086264e+01    7.370722e+03
  4.095418e+01    7.769224e+03
  4.104572e+01    1.021510e+04
  4.113726e+01    1.312734e+04
  4.122880e+01    8.985767e+03
  4.132034e+01    7.825952e+03
  4.141189e+01    7.507692e+03
  4.150343e+01    7.348122e+03
  4.159497e+01    7.311291e+03
  4.168651e+01    7.336554e+03
  4.177805e+01    7.399746e+03
  4.186959e+01    7.502565e+03
  4.196113e+01    7.638920e+03
  4.205268e+01    7.809617e+03
  4.214422e+01    8.221625e+03
  4.223576e+01    8.954112e+03
  4.232730e+01    7.969391e+03
  4.241884e+01    7.436519e+03
  4.251038e+01    7.248082e+03
  4.260192e+01    7.143721e+03
  4.269347e+01    7.083275e+03
  4.278501e+01    7.050072e+03
  4.287655e+01    7.037605e+03
  4.296809e+01    7.073691e+03
  4.305963e+01    7.150737e+03
  4.315117e+01    7.454107e+03
  4.324272e+01    9.245117e+03
  4.333426e+01    1.219824e+04
  4.342580e+01    8.782810e+03
  4.351734e+01    7.620481e+03
  4.360888e+01    7.611928e+03
  4.370042e+01    7.954892e+03
  4.379196e+01    8.457858e+03
  4.388351e+01    8.995450e+03
  4.397505e+01    9.816002e+03
  4.406659e+01    1.052585e+04
  4.415813e+01    1.091039e+04
  4.424967e+01    1.241256e+04
  4.434121e+01    2.352878e+04
  4.443275e+01    2.567483e+04
  4.452430e+01    1.153899e+04
  4.461584e+01    8.505457e+03
  4.470738e+01    7.778139e+03
  4.479892e+01    7.489440e+03
  4.489046e+01    7.290552e+03
  4.498200e+01    7.165161e+03
  4.507354e+01    7.121541e+03
  4.516509e+01    7.141579e+03
  4.525663e+01    7.407041e+03
  4.534817e+01    9.103598e+03
  4.543971e+01    1.301553e+04
  4.553125e+01    9.354949e+03
  4.562279e+01    7.541895e+03
  4.571433e+01    7.296690e+03
  4.580588e+01    7.311981e+03
  4.589742e+01    7.384985e+03
  4.598896e+01    7.447520e+03
  4.608050e+01    7.437287e+03
  4.617204e+01    7.352672e+03
  4.626358e+01    7.276135e+03
  4.635513e+01    7.489631e+03
  4.644667e+01    8.741823e+03
  4.653821e+01    8.048452e+03
  4.662975e+01    7.266969e+03
  4.672129e+01    7.193398e+03
  4.681283e+01    7.187880e+03
  4.690437e+01    7.041940e+03
  4.699592e+01    6.914095e+03
  4.708746e+01    6.864195e+03
  4.717900e+01    6.868090e+03
  4.727054e+01    6.966855e+03
  4.736208e+01    7.264834e+03
  4.745362e+01    8.284318e+03
  4.754516e+01    8.066203e+03
  4.763671e+01    7.735371e+03
  4.772825e+01    7.564773e+03
  4.781979e+01    7.267028e+03
  4.788844e+01    2.938814e+03

File: wam39b_rampe_1_xrd_000022_integrated.dat
# == pyFAI calibration ==
# Distance Sample to Detector: 0.261615 m
# PONI: 2.023e-01, 2.348e-01 m
# Rotations: -0.026380 0.002005 0.000000 rad
#
# == Fit2d calibration ==
# Distance Sample-beamCenter: 261.707 mm
# Center: x=6119.331, y=5134.776 pix
# Tilt: 1.516 deg  TiltPlanRot: 4.347 deg
#
# Detector Rayonix SX165	 PixelSize= 3.950e-05, 3.950e-05 m
#    Detector has a mask: True
#    Detector has a dark current: False
#    detector has a flat field: False
#
# Wavelength: 1.12713e-10 m
# Mask applied: from detector
# Dark current applied: False
# Flat field applied: False
# Polarization factor: None
# Normalization factor: 1.0
# --> ROCK\\WAM39B_integrated\wam39b_rampe_1_xrd_000022_integrated.dat
#       2th_deg             I
  2.502596e+01    4.618272e+03
  2.511750e+01    1.883375e+04
  2.520905e+01    1.908093e+04
  2.530059e+01    1.922770e+04
  2.539213e+01    1.892405e+04
  2.548367e+01    1.949355e+04
  2.557521e+01    2.050628e+04
  2.566675e+01    2.119361e+04
  2.575829e+01    2.131275e+04
  2.584984e+01    1.973736e+04
  2.594138e+01    1.913635e+04
  2.603292e+01    1.951149e+04
  2.612446e+01    2.057103e+04
  2.621600e+01    2.302360e+04
  2.630754e+01    3.019715e+04
  2.639908e+01    3.250975e+04
  2.649063e+01    2.871469e+04
  2.658217e+01    2.771381e+04
  2.667371e+01    2.445998e+04
  2.676525e+01    2.088928e+04
  2.685679e+01    1.859686e+04
  2.694833e+01    1.735408e+04
  2.703988e+01    1.665317e+04
  2.713142e+01    1.625792e+04
  2.722296e+01    1.592783e+04
  2.731450e+01    1.572592e+04
  2.740604e+01    1.558948e+04
  2.749758e+01    1.558972e+04
  2.758912e+01    1.571409e+04
  2.768067e+01    1.605461e+04
  2.777221e+01    1.692715e+04
  2.786375e+01    1.918749e+04
  2.795529e+01    2.238276e+04
  2.804683e+01    1.959044e+04
  2.813837e+01    1.569080e+04
  2.822991e+01    1.451001e+04
  2.832146e+01    1.402806e+04
  2.841300e+01    1.369115e+04
  2.850454e+01    1.346629e+04
  2.859608e+01    1.328164e+04
  2.868762e+01    1.307774e+04
  2.877916e+01    1.290553e+04
  2.887070e+01    1.273103e+04
  2.896225e+01    1.254343e+04
  2.905379e+01    1.235698e+04
  2.914533e+01    1.219089e+04
  2.923687e+01    1.208657e+04
  2.932841e+01    1.200606e+04
  2.941995e+01    1.217833e+04
  2.951149e+01    1.322591e+04
  2.960304e+01    1.258404e+04
  2.969458e+01    1.160133e+04
  2.978612e+01    1.135228e+04
  2.987766e+01    1.123074e+04
  2.996920e+01    1.118313e+04
  3.006074e+01    1.118184e+04
  3.015228e+01    1.121794e+04
  3.024383e+01    1.131366e+04
  3.033537e+01    1.155872e+04
  3.042691e+01    1.206701e+04
  3.051845e+01    1.323028e+04
  3.060999e+01    1.594459e+04
  3.070153e+01    2.021428e+04
  3.079308e+01    2.222695e+04
  3.088462e+01    2.161132e+04
  3.097616e+01    2.861779e+04
  3.106770e+01    2.529326e+04
  3.115924e+01    1.420521e+04
  3.125078e+01    1.171110e+04
  3.134232e+01    1.091702e+04
  3.143387e+01    1.055197e+04
  3.152541e+01    1.029382e+04
  3.161695e+01    1.014990e+04
  3.170849e+01    1.004755e+04
  3.180003e+01    9.994132e+03
  3.189157e+01    9.996777e+03
  3.198311e+01    1.004608e+04
  3.207466e+01    1.012087e+04
  3.216620e+01    1.014264e+04
  3.225774e+01    1.007255e+04
  3.234928e+01    1.036477e+04
  3.244082e+01    1.108976e+04
  3.253236e+01    9.896076e+03
  3.262390e+01    9.376481e+03
  3.271545e+01    9.223022e+03
  3.280699e+01    9.126993e+03
  3.289853e+01    9.055612e+03
  3.299007e+01    9.001508e+03
  3.308161e+01    8.951564e+03
  3.317315e+01    8.935673e+03
  3.326469e+01    8.938490e+03
  3.335624e+01    8.941382e+03
  3.344778e+01    8.961882e+03
  3.353932e+01    9.118660e+03
  3.363086e+01    9.892156e+03
  3.372240e+01    1.472479e+04
  3.381394e+01    2.084908e+04
  3.390549e+01    1.204606e+04
  3.399703e+01    9.353774e+03
  3.408857e+01    8.883259e+03
  3.418011e+01    8.754484e+03
  3.427165e+01    8.661466e+03
  3.436319e+01    8.526120e+03
  3.445473e+01    8.415301e+03
  3.454628e+01    8.316990e+03
  3.463782e+01    8.275757e+03
  3.472936e+01    8.291882e+03
  3.482090e+01    8.364973e+03
  3.491244e+01    8.635119e+03
  3.500398e+01    8.863238e+03
  3.509552e+01    8.562401e+03
  3.518707e+01    8.206847e+03
  3.527861e+01    8.037055e+03
  3.537015e+01    7.935626e+03
  3.546169e+01    7.879126e+03
  3.555323e+01    7.821066e+03
  3.564477e+01    7.790525e+03
  3.573631e+01    7.762693e+03
  3.582786e+01    7.750808e+03
  3.591940e+01    7.763154e+03
  3.601094e+01    7.799809e+03
  3.610248e+01    7.863441e+03
  3.619402e+01    8.085898e+03
  3.628556e+01    9.257950e+03
  3.637710e+01    1.261655e+04
  3.646865e+01    9.961000e+03
  3.656019e+01    8.278591e+03
  3.665173e+01    8.012248e+03
  3.674327e+01    7.985414e+03
  3.683481e+01    7.982138e+03
  3.692635e+01    8.025431e+03
  3.701790e+01    8.114014e+03
  3.710944e+01    8.283172e+03
  3.720098e+01    8.546863e+03
  3.729252e+01    9.022145e+03
  3.738406e+01    1.031908e+04
  3.747560e+01    1.583498e+04
  3.756714e+01    4.792012e+04
  3.765869e+01    5.827149e+04
  3.775023e+01    1.907102e+04
  3.784177e+01    1.095854e+04
  3.793331e+01    9.255953e+03
  3.802485e+01    8.640102e+03
  3.811639e+01    8.378450e+03
  3.820793e+01    8.249704e+03
  3.829948e+01    8.252283e+03
  3.839102e+01    8.250354e+03
  3.848256e+01    8.168282e+03
  3.857410e+01    8.114934e+03
  3.866564e+01    8.225524e+03
  3.875718e+01    9.232627e+03
  3.884872e+01    9.997264e+03
  3.894027e+01    8.406342e+03
  3.903181e+01    8.003618e+03
  3.912335e+01    7.925484e+03
  3.921489e+01    7.902994e+03
  3.930643e+01    7.902814e+03
  3.939797e+01    7.909688e+03
  3.948951e+01    7.937073e+03
  3.958106e+01    7.980675e+03
  3.967260e+01    7.983837e+03
  3.976414e+01    7.932583e+03
  3.985568e+01    7.917901e+03
  3.994722e+01    8.204661e+03
  4.003876e+01    8.166661e+03
  4.013031e+01    7.838454e+03
  4.022185e+01    7.855149e+03
  4.031339e+01    7.955658e+03
  4.040493e+01    7.978287e+03
  4.049647e+01    7.834641e+03
  4.058801e+01    7.704680e+03
  4.067955e+01    7.637989e+03
  4.077110e+01    7.638807e+03
  4.086264e+01    7.718495e+03
  4.095418e+01    8.055297e+03
  4.104572e+01    1.001820e+04
  4.113726e+01    1.391605e+04
  4.122880e+01    9.944887e+03
  4.132034e+01    8.321320e+03
  4.141189e+01    7.910761e+03
  4.150343e+01    7.704909e+03
  4.159497e+01    7.641710e+03
  4.168651e+01    7.653549e+03
  4.177805e+01    7.698231e+03
  4.186959e+01    7.809324e+03
  4.196113e+01    7.993384e+03
  4.205268e+01    8.250095e+03
  4.214422e+01    8.690521e+03
  4.223576e+01    9.584209e+03
  4.232730e+01    8.673140e+03
  4.241884e+01    7.902632e+03
  4.251038e+01    7.655182e+03
  4.260192e+01    7.517956e+03
  4.269347e+01    7.456659e+03
  4.278501e+01    7.418240e+03
  4.287655e+01    7.409229e+03
  4.296809e+01    7.437226e+03
  4.305963e+01    7.509718e+03
  4.315117e+01    7.772495e+03
  4.324272e+01    9.159615e+03
  4.333426e+01    1.275913e+04
  4.342580e+01    9.778904e+03
  4.351734e+01    8.087084e+03
  4.360888e+01    7.993426e+03
  4.370042e+01    8.360359e+03
  4.379196e+01    9.051956e+03
  4.388351e+01    1.000200e+04
  4.397505e+01    1.145956e+04
  4.406659e+01    1.219160e+04
  4.415813e+01    1.167982e+04
  4.424967e+01    1.200133e+04
  4.434121e+01    2.097068e+04
  4.443275e+01    2.874471e+04
  4.452430e+01    1.326331e+04
  4.461584e+01    9.019003e+03
  4.470738e+01    8.146251e+03
  4.479892e+01    7.841159e+03
  4.489046e+01    7.641467e+03
  4.498200e+01    7.512543e+03
  4.507354e+01    7.435255e+03
  4.516509e+01    7.450976e+03
  4.525663e+01    7.666385e+03
  4.534817e+01    8.954878e+03
  4.543971e+01    1.326809e+04
  4.553125e+01    1.053779e+04
  4.562279e+01    7.946378e+03
  4.571433e+01    7.584271e+03
  4.580588e+01    7.593398e+03
  4.589742e+01    7.719487e+03
  4.598896e+01    7.894938e+03
  4.608050e+01    7.994166e+03
  4.617204e+01    7.912958e+03
  4.626358e+01    7.757422e+03
  4.635513e+01    7.786014e+03
  4.644667e+01    8.926840e+03
  4.653821e+01    8.705030e+03
  4.662975e+01    7.714497e+03
  4.672129e+01    7.617632e+03
  4.681283e+01    7.628522e+03
  4.690437e+01    7.416401e+03
  4.699592e+01    7.267316e+03
  4.708746e+01    7.220889e+03
  4.717900e+01    7.225433e+03
  4.727054e+01    7.305811e+03
  4.736208e+01    7.555481e+03
  4.745362e+01    8.541240e+03
  4.754516e+01    8.673765e+03
  4.763671e+01    8.181458e+03
  4.772825e+01    7.944577e+03
  4.781979e+01    7.628382e+03
  4.788844e+01    3.101611e+03

File: wam39b_rampe_1_xrd_000023_integrated.dat
# == pyFAI calibration ==
# Distance Sample to Detector: 0.261615 m
# PONI: 2.023e-01, 2.348e-01 m
# Rotations: -0.026380 0.002005 0.000000 rad
#
# == Fit2d calibration ==
# Distance Sample-beamCenter: 261.707 mm
# Center: x=6119.331, y=5134.776 pix
# Tilt: 1.516 deg  TiltPlanRot: 4.347 deg
#
# Detector Rayonix SX165	 PixelSize= 3.950e-05, 3.950e-05 m
#    Detector has a mask: True
#    Detector has a dark current: False
#    detector has a flat field: False
#
# Wavelength: 1.12713e-10 m
# Mask applied: from detector
# Dark current applied: False
# Flat field applied: False
# Polarization factor: None
# Normalization factor: 1.0
# --> ROCK\\WAM39B_integrated\wam39b_rampe_1_xrd_000023_integrated.dat
#       2th_deg             I
  2.502596e+01    5.143964e+03
  2.511750e+01    2.104713e+04
  2.520905e+01    2.125319e+04
  2.530059e+01    2.141372e+04
  2.539213e+01    2.099530e+04
  2.548367e+01    2.148987e+04
  2.557521e+01    2.258842e+04
  2.566675e+01    2.331108e+04
  2.575829e+01    2.363050e+04
  2.584984e+01    2.177459e+04
  2.594138e+01    2.102846e+04
  2.603292e+01    2.134262e+04
  2.612446e+01    2.247619e+04
  2.621600e+01    2.522141e+04
  2.630754e+01    3.343018e+04
  2.639908e+01    3.756520e+04
  2.649063e+01    3.540404e+04
  2.658217e+01    3.211151e+04
  2.667371e+01    2.595044e+04
  2.676525e+01    2.192183e+04
  2.685679e+01    1.987859e+04
  2.694833e+01    1.885591e+04
  2.703988e+01    1.827380e+04
  2.713142e+01    1.791235e+04
  2.722296e+01    1.759999e+04
  2.731450e+01    1.741103e+04
  2.740604e+01    1.723279e+04
  2.749758e+01    1.719860e+04
  2.758912e+01    1.727952e+04
  2.768067e+01    1.756629e+04
  2.777221e+01    1.840764e+04
  2.786375e+01    2.101276e+04
  2.795529e+01    2.508134e+04
  2.804683e+01    2.174050e+04
  2.813837e+01    1.734810e+04
  2.822991e+01    1.610016e+04
  2.832146e+01    1.560395e+04
  2.841300e+01    1.525789e+04
  2.850454e+01    1.501302e+04
  2.859608e+01    1.483330e+04
  2.868762e+01    1.459419e+04
  2.877916e+01    1.439786e+04
  2.887070e+01    1.421307e+04
  2.896225e+01    1.400997e+04
  2.905379e+01    1.379845e+04
  2.914533e+01    1.362411e+04
  2.923687e+01    1.348836e+04
  2.932841e+01    1.339555e+04
  2.941995e+01    1.356447e+04
  2.951149e+01    1.473779e+04
  2.960304e+01    1.403951e+04
  2.969458e+01    1.294109e+04
  2.978612e+01    1.265328e+04
  2.987766e+01    1.252319e+04
  2.996920e+01    1.247275e+04
  3.006074e+01    1.248758e+04
  3.015228e+01    1.253851e+04
  3.024383e+01    1.268667e+04
  3.033537e+01    1.303398e+04
  3.042691e+01    1.386818e+04
  3.051845e+01    1.603718e+04
  3.060999e+01    2.175811e+04
  3.070153e+01    2.929497e+04
  3.079308e+01    2.681313e+04
  3.088462e+01    2.197327e+04
  3.097616e+01    2.971318e+04
  3.106770e+01    2.709725e+04
  3.115924e+01    1.524912e+04
  3.125078e+01    1.269956e+04
  3.134232e+01    1.193285e+04
  3.143387e+01    1.157375e+04
  3.152541e+01    1.133329e+04
  3.161695e+01    1.117552e+04
  3.170849e+01    1.106814e+04
  3.180003e+01    1.099012e+04
  3.189157e+01    1.095819e+04
  3.198311e+01    1.101080e+04
  3.207466e+01    1.112096e+04
  3.216620e+01    1.123824e+04
  3.225774e+01    1.117902e+04
  3.234928e+01    1.142648e+04
  3.244082e+01    1.223802e+04
  3.253236e+01    1.095098e+04
  3.262390e+01    1.038371e+04
  3.271545e+01    1.021883e+04
  3.280699e+01    1.012691e+04
  3.289853e+01    1.005939e+04
  3.299007e+01    9.990992e+03
  3.308161e+01    9.936485e+03
  3.317315e+01    9.914189e+03
  3.326469e+01    9.921583e+03
  3.335624e+01    9.924305e+03
  3.344778e+01    9.930528e+03
  3.353932e+01    1.011436e+04
  3.363086e+01    1.092891e+04
  3.372240e+01    1.613057e+04
  3.381394e+01    2.308251e+04
  3.390549e+01    1.339597e+04
  3.399703e+01    1.036806e+04
  3.408857e+01    9.832997e+03
  3.418011e+01    9.697527e+03
  3.427165e+01    9.592008e+03
  3.436319e+01    9.446800e+03
  3.445473e+01    9.300783e+03
  3.454628e+01    9.214347e+03
  3.463782e+01    9.167553e+03
  3.472936e+01    9.179750e+03
  3.482090e+01    9.307032e+03
  3.491244e+01    9.666050e+03
  3.500398e+01    9.811321e+03
  3.509552e+01    9.327723e+03
  3.518707e+01    9.008133e+03
  3.527861e+01    8.864528e+03
  3.537015e+01    8.775912e+03
  3.546169e+01    8.714448e+03
  3.555323e+01    8.674869e+03
  3.564477e+01    8.626785e+03
  3.573631e+01    8.606049e+03
  3.582786e+01    8.591971e+03
  3.591940e+01    8.603153e+03
  3.601094e+01    8.642334e+03
  3.610248e+01    8.713570e+03
  3.619402e+01    8.954639e+03
  3.628556e+01    1.019195e+04
  3.637710e+01    1.393578e+04
  3.646865e+01    1.107650e+04
  3.656019e+01    9.179756e+03
  3.665173e+01    8.884628e+03
  3.674327e+01    8.854188e+03
  3.683481e+01    8.849286e+03
  3.692635e+01    8.893393e+03
  3.701790e+01    8.983905e+03
  3.710944e+01    9.172317e+03
  3.720098e+01    9.456640e+03
  3.729252e+01    9.961861e+03
  3.738406e+01    1.133478e+04
  3.747560e+01    1.720315e+04
  3.756714e+01    5.194761e+04
  3.765869e+01    6.461989e+04
  3.775023e+01    2.136057e+04
  3.784177e+01    1.213497e+04
  3.793331e+01    1.025167e+04
  3.802485e+01    9.558983e+03
  3.811639e+01    9.268597e+03
  3.820793e+01    9.115850e+03
  3.829948e+01    9.098564e+03
  3.839102e+01    9.148988e+03
  3.848256e+01    9.107682e+03
  3.857410e+01    9.030749e+03
  3.866564e+01    9.127799e+03
  3.875718e+01    1.019242e+04
  3.884872e+01    1.108089e+04
  3.894027e+01    9.339308e+03
  3.903181e+01    8.874634e+03
  3.912335e+01    8.777372e+03
  3.921489e+01    8.747208e+03
  3.930643e+01    8.723085e+03
  3.939797e+01    8.719229e+03
  3.948951e+01    8.747045e+03
  3.958106e+01    8.800596e+03
  3.967260e+01    8.862832e+03
  3.976414e+01    8.792494e+03
  3.985568e+01    8.744445e+03
  3.994722e+01    9.046135e+03
  4.003876e+01    9.007005e+03
  4.013031e+01    8.633747e+03
  4.022185e+01    8.624962e+03
  4.031339e+01    8.758535e+03
  4.040493e+01    8.797994e+03
  4.049647e+01    8.631849e+03
  4.058801e+01    8.491133e+03
  4.067955e+01    8.430888e+03
  4.077110e+01    8.437974e+03
  4.086264e+01    8.531135e+03
  4.095418e+01    8.882220e+03
  4.104572e+01    1.096313e+04
  4.113726e+01    1.530594e+04
  4.122880e+01    1.101370e+04
  4.132034e+01    9.215717e+03
  4.141189e+01    8.733540e+03
  4.150343e+01    8.468341e+03
  4.159497e+01    8.384490e+03
  4.168651e+01    8.373441e+03
  4.177805e+01    8.394420e+03
  4.186959e+01    8.467864e+03
  4.196113e+01    8.631477e+03
  4.205268e+01    8.936984e+03
  4.214422e+01    9.544146e+03
  4.223576e+01    1.060463e+04
  4.232730e+01    9.577244e+03
  4.241884e+01    8.673765e+03
  4.251038e+01    8.391108e+03
  4.260192e+01    8.266668e+03
  4.269347e+01    8.224200e+03
  4.278501e+01    8.194016e+03
  4.287655e+01    8.191565e+03
  4.296809e+01    8.236303e+03
  4.305963e+01    8.312293e+03
  4.315117e+01    8.583534e+03
  4.324272e+01    1.007656e+04
  4.333426e+01    1.406568e+04
  4.342580e+01    1.090281e+04
  4.351734e+01    9.015214e+03
  4.360888e+01    8.942702e+03
  4.370042e+01    9.538119e+03
  4.379196e+01    1.096248e+04
  4.388351e+01    1.342640e+04
  4.397505e+01    1.563042e+04
  4.406659e+01    1.393599e+04
  4.415813e+01    1.171724e+04
  4.424967e+01    1.208674e+04
  4.434121e+01    2.208346e+04
  4.443275e+01    3.141084e+04
  4.452430e+01    1.461754e+04
  4.461584e+01    9.841168e+03
  4.470738e+01    8.923922e+03
  4.479892e+01    8.605841e+03
  4.489046e+01    8.372259e+03
  4.498200e+01    8.237190e+03
  4.507354e+01    8.161691e+03
  4.516509e+01    8.195794e+03
  4.525663e+01    8.411285e+03
  4.534817e+01    9.777305e+03
  4.543971e+01    1.447310e+04
  4.553125e+01    1.164009e+04
  4.562279e+01    8.711406e+03
  4.571433e+01    8.247774e+03
  4.580588e+01    8.192274e+03
  4.589742e+01    8.297890e+03
  4.598896e+01    8.533888e+03
  4.608050e+01    8.774195e+03
  4.617204e+01    8.770348e+03
  4.626358e+01    8.504815e+03
  4.635513e+01    8.475084e+03
  4.644667e+01    9.701239e+03
  4.653821e+01    9.546800e+03
  4.662975e+01    8.475779e+03
  4.672129e+01    8.473306e+03
  4.681283e+01    8.432299e+03
  4.690437e+01    8.134135e+03
  4.699592e+01    7.996043e+03
  4.708746e+01    7.976771e+03
  4.717900e+01    7.988255e+03
  4.727054e+01    8.093141e+03
  4.736208e+01    8.369226e+03
  4.745362e+01    9.429486e+03
  4.754516e+01    9.631432e+03
  4.763671e+01    9.059102e+03
  4.772825e+01    8.773463e+03
  4.781979e+01    8.422159e+03
  4.788844e+01    3.425857e+03