Folder: heo-xas-xrd/Output/ROCK_XRD/WAM39B_integrated/rampe3 (part 2)

File: wam39b_rampe_3_xrd_000003_integrated.dat
# == pyFAI calibration ==
# Distance Sample to Detector: 0.261615 m
# PONI: 2.023e-01, 2.348e-01 m
# Rotations: -0.026380 0.002005 0.000000 rad
#
# == Fit2d calibration ==
# Distance Sample-beamCenter: 261.707 mm
# Center: x=6119.331, y=5134.776 pix
# Tilt: 1.516 deg  TiltPlanRot: 4.347 deg
#
# Detector Rayonix SX165	 PixelSize= 3.950e-05, 3.950e-05 m
#    Detector has a mask: True
#    Detector has a dark current: False
#    detector has a flat field: False
#
# Wavelength: 1.12713e-10 m
# Mask applied: from detector
# Dark current applied: False
# Flat field applied: False
# Polarization factor: None
# Normalization factor: 1.0
# --> ROCK\\WAM39B_integrated\wam39b_rampe_3_xrd_000003_integrated.dat
#       2th_deg             I
  2.502596e+01    4.698379e+03
  2.511750e+01    1.930168e+04
  2.520905e+01    1.958112e+04
  2.530059e+01    1.968101e+04
  2.539213e+01    1.916081e+04
  2.548367e+01    1.920117e+04
  2.557521e+01    1.948521e+04
  2.566675e+01    1.999442e+04
  2.575829e+01    2.014612e+04
  2.584984e+01    1.979865e+04
  2.594138e+01    1.937072e+04
  2.603292e+01    1.899504e+04
  2.612446e+01    1.885566e+04
  2.621600e+01    1.964253e+04
  2.630754e+01    2.398755e+04
  2.639908e+01    3.673611e+04
  2.649063e+01    4.628455e+04
  2.658217e+01    3.230991e+04
  2.667371e+01    2.061003e+04
  2.676525e+01    1.790550e+04
  2.685679e+01    1.705630e+04
  2.694833e+01    1.661794e+04
  2.703988e+01    1.633633e+04
  2.713142e+01    1.613051e+04
  2.722296e+01    1.590648e+04
  2.731450e+01    1.574188e+04
  2.740604e+01    1.557153e+04
  2.749758e+01    1.549095e+04
  2.758912e+01    1.545987e+04
  2.768067e+01    1.548815e+04
  2.777221e+01    1.564224e+04
  2.786375e+01    1.615731e+04
  2.795529e+01    1.820922e+04
  2.804683e+01    2.114913e+04
  2.813837e+01    1.665441e+04
  2.822991e+01    1.509366e+04
  2.832146e+01    1.449079e+04
  2.841300e+01    1.408027e+04
  2.850454e+01    1.380114e+04
  2.859608e+01    1.356845e+04
  2.868762e+01    1.335422e+04
  2.877916e+01    1.320986e+04
  2.887070e+01    1.312921e+04
  2.896225e+01    1.307886e+04
  2.905379e+01    1.291647e+04
  2.914533e+01    1.262100e+04
  2.923687e+01    1.237188e+04
  2.932841e+01    1.215875e+04
  2.941995e+01    1.205820e+04
  2.951149e+01    1.257902e+04
  2.960304e+01    1.347909e+04
  2.969458e+01    1.179582e+04
  2.978612e+01    1.133717e+04
  2.987766e+01    1.116395e+04
  2.996920e+01    1.108083e+04
  3.006074e+01    1.103410e+04
  3.015228e+01    1.102272e+04
  3.024383e+01    1.101796e+04
  3.033537e+01    1.111097e+04
  3.042691e+01    1.147882e+04
  3.051845e+01    1.282038e+04
  3.060999e+01    2.087849e+04
  3.070153e+01    4.637943e+04
  3.079308e+01    2.932224e+04
  3.088462e+01    1.580354e+04
  3.097616e+01    1.709404e+04
  3.106770e+01    2.969204e+04
  3.115924e+01    1.543827e+04
  3.125078e+01    1.104650e+04
  3.134232e+01    1.033419e+04
  3.143387e+01    1.007768e+04
  3.152541e+01    9.925064e+03
  3.161695e+01    9.809195e+03
  3.170849e+01    9.723180e+03
  3.180003e+01    9.652868e+03
  3.189157e+01    9.593821e+03
  3.198311e+01    9.578770e+03
  3.207466e+01    9.561404e+03
  3.216620e+01    9.533270e+03
  3.225774e+01    9.457181e+03
  3.234928e+01    9.473018e+03
  3.244082e+01    1.048603e+04
  3.253236e+01    1.038338e+04
  3.262390e+01    9.332535e+03
  3.271545e+01    9.203397e+03
  3.280699e+01    9.156399e+03
  3.289853e+01    9.037904e+03
  3.299007e+01    8.890212e+03
  3.308161e+01    8.808524e+03
  3.317315e+01    8.746731e+03
  3.326469e+01    8.703622e+03
  3.335624e+01    8.678607e+03
  3.344778e+01    8.650446e+03
  3.353932e+01    8.674247e+03
  3.363086e+01    8.837172e+03
  3.372240e+01    1.001583e+04
  3.381394e+01    1.946276e+04
  3.390549e+01    1.664229e+04
  3.399703e+01    9.438592e+03
  3.408857e+01    8.542602e+03
  3.418011e+01    8.318166e+03
  3.427165e+01    8.230821e+03
  3.436319e+01    8.172831e+03
  3.445473e+01    8.126286e+03
  3.454628e+01    8.094301e+03
  3.463782e+01    8.071771e+03
  3.472936e+01    8.074526e+03
  3.482090e+01    8.091907e+03
  3.491244e+01    8.112271e+03
  3.500398e+01    8.070330e+03
  3.509552e+01    7.961609e+03
  3.518707e+01    7.833917e+03
  3.527861e+01    7.748155e+03
  3.537015e+01    7.655833e+03
  3.546169e+01    7.591579e+03
  3.555323e+01    7.537335e+03
  3.564477e+01    7.493093e+03
  3.573631e+01    7.478095e+03
  3.582786e+01    7.456488e+03
  3.591940e+01    7.456998e+03
  3.601094e+01    7.472876e+03
  3.610248e+01    7.493861e+03
  3.619402e+01    7.556961e+03
  3.628556e+01    7.802489e+03
  3.637710e+01    1.003866e+04
  3.646865e+01    1.240413e+04
  3.656019e+01    8.361177e+03
  3.665173e+01    7.691004e+03
  3.674327e+01    7.612047e+03
  3.683481e+01    7.607250e+03
  3.692635e+01    7.627601e+03
  3.701790e+01    7.663967e+03
  3.710944e+01    7.726792e+03
  3.720098e+01    7.839785e+03
  3.729252e+01    8.000464e+03
  3.738406e+01    8.395502e+03
  3.747560e+01    9.580203e+03
  3.756714e+01    1.746774e+04
  3.765869e+01    6.874316e+04
  3.775023e+01    3.757716e+04
  3.784177e+01    1.179012e+04
  3.793331e+01    8.953657e+03
  3.802485e+01    8.250325e+03
  3.811639e+01    7.999471e+03
  3.820793e+01    7.855678e+03
  3.829948e+01    7.796415e+03
  3.839102e+01    7.754742e+03
  3.848256e+01    7.745884e+03
  3.857410e+01    7.754563e+03
  3.866564e+01    7.769420e+03
  3.875718e+01    7.971933e+03
  3.884872e+01    9.723502e+03
  3.894027e+01    9.140604e+03
  3.903181e+01    7.834145e+03
  3.912335e+01    7.645520e+03
  3.921489e+01    7.592271e+03
  3.930643e+01    7.564757e+03
  3.939797e+01    7.562732e+03
  3.948951e+01    7.557346e+03
  3.958106e+01    7.540387e+03
  3.967260e+01    7.506965e+03
  3.976414e+01    7.441923e+03
  3.985568e+01    7.405344e+03
  3.994722e+01    7.477860e+03
  4.003876e+01    7.961933e+03
  4.013031e+01    7.595447e+03
  4.022185e+01    7.330649e+03
  4.031339e+01    7.281226e+03
  4.040493e+01    7.264625e+03
  4.049647e+01    7.249270e+03
  4.058801e+01    7.229183e+03
  4.067955e+01    7.228307e+03
  4.077110e+01    7.244667e+03
  4.086264e+01    7.266991e+03
  4.095418e+01    7.343387e+03
  4.104572e+01    7.661285e+03
  4.113726e+01    1.088360e+04
  4.122880e+01    1.331946e+04
  4.132034e+01    8.257626e+03
  4.141189e+01    7.515627e+03
  4.150343e+01    7.383720e+03
  4.159497e+01    7.314976e+03
  4.168651e+01    7.273709e+03
  4.177805e+01    7.239557e+03
  4.186959e+01    7.228785e+03
  4.196113e+01    7.280157e+03
  4.205268e+01    7.352706e+03
  4.214422e+01    7.437319e+03
  4.223576e+01    7.827050e+03
  4.232730e+01    8.699806e+03
  4.241884e+01    7.446614e+03
  4.251038e+01    7.143747e+03
  4.260192e+01    7.063581e+03
  4.269347e+01    7.033902e+03
  4.278501e+01    7.020639e+03
  4.287655e+01    7.003693e+03
  4.296809e+01    7.025588e+03
  4.305963e+01    7.047857e+03
  4.315117e+01    7.140697e+03
  4.324272e+01    7.341199e+03
  4.333426e+01    9.342451e+03
  4.342580e+01    1.272285e+04
  4.351734e+01    8.242444e+03
  4.360888e+01    7.422018e+03
  4.370042e+01    7.569549e+03
  4.379196e+01    8.441266e+03
  4.388351e+01    1.400741e+04
  4.397505e+01    2.235438e+04
  4.406659e+01    1.323535e+04
  4.415813e+01    8.888196e+03
  4.424967e+01    8.170295e+03
  4.434121e+01    9.525906e+03
  4.443275e+01    2.417327e+04
  4.452430e+01    2.509358e+04
  4.461584e+01    9.583170e+03
  4.470738e+01    7.560597e+03
  4.479892e+01    7.171398e+03
  4.489046e+01    7.012942e+03
  4.498200e+01    6.952925e+03
  4.507354e+01    6.922976e+03
  4.516509e+01    6.918521e+03
  4.525663e+01    6.952185e+03
  4.534817e+01    7.140475e+03
  4.543971e+01    8.727079e+03
  4.553125e+01    1.389915e+04
  4.562279e+01    8.799566e+03
  4.571433e+01    7.139615e+03
  4.580588e+01    6.946749e+03
  4.589742e+01    6.925010e+03
  4.598896e+01    6.938826e+03
  4.608050e+01    6.940066e+03
  4.617204e+01    6.902727e+03
  4.626358e+01    6.828832e+03
  4.635513e+01    6.803360e+03
  4.644667e+01    7.070787e+03
  4.653821e+01    8.793003e+03
  4.662975e+01    7.846959e+03
  4.672129e+01    7.026903e+03
  4.681283e+01    6.975186e+03
  4.690437e+01    6.957883e+03
  4.699592e+01    6.946937e+03
  4.708746e+01    6.956976e+03
  4.717900e+01    6.972120e+03
  4.727054e+01    7.035219e+03
  4.736208e+01    7.147491e+03
  4.745362e+01    7.457980e+03
  4.754516e+01    8.863750e+03
  4.763671e+01    8.471513e+03
  4.772825e+01    7.717958e+03
  4.781979e+01    7.267885e+03
  4.788844e+01    2.920591e+03

File: wam39b_rampe_3_xrd_000004_integrated.dat
# == pyFAI calibration ==
# Distance Sample to Detector: 0.261615 m
# PONI: 2.023e-01, 2.348e-01 m
# Rotations: -0.026380 0.002005 0.000000 rad
#
# == Fit2d calibration ==
# Distance Sample-beamCenter: 261.707 mm
# Center: x=6119.331, y=5134.776 pix
# Tilt: 1.516 deg  TiltPlanRot: 4.347 deg
#
# Detector Rayonix SX165	 PixelSize= 3.950e-05, 3.950e-05 m
#    Detector has a mask: True
#    Detector has a dark current: False
#    detector has a flat field: False
#
# Wavelength: 1.12713e-10 m
# Mask applied: from detector
# Dark current applied: False
# Flat field applied: False
# Polarization factor: None
# Normalization factor: 1.0
# --> ROCK\\WAM39B_integrated\wam39b_rampe_3_xrd_000004_integrated.dat
#       2th_deg             I
  2.502596e+01    4.238808e+03
  2.511750e+01    1.740620e+04
  2.520905e+01    1.768343e+04
  2.530059e+01    1.778701e+04
  2.539213e+01    1.731860e+04
  2.548367e+01    1.732614e+04
  2.557521e+01    1.762488e+04
  2.566675e+01    1.808050e+04
  2.575829e+01    1.823177e+04
  2.584984e+01    1.792852e+04
  2.594138e+01    1.754298e+04
  2.603292e+01    1.720485e+04
  2.612446e+01    1.706377e+04
  2.621600e+01    1.776163e+04
  2.630754e+01    2.172289e+04
  2.639908e+01    3.257719e+04
  2.649063e+01    4.064523e+04
  2.658217e+01    3.071447e+04
  2.667371e+01    1.896688e+04
  2.676525e+01    1.625307e+04
  2.685679e+01    1.543575e+04
  2.694833e+01    1.502521e+04
  2.703988e+01    1.477000e+04
  2.713142e+01    1.459283e+04
  2.722296e+01    1.438836e+04
  2.731450e+01    1.424190e+04
  2.740604e+01    1.407146e+04
  2.749758e+01    1.399047e+04
  2.758912e+01    1.395812e+04
  2.768067e+01    1.400798e+04
  2.777221e+01    1.414187e+04
  2.786375e+01    1.459718e+04
  2.795529e+01    1.653182e+04
  2.804683e+01    1.916066e+04
  2.813837e+01    1.507231e+04
  2.822991e+01    1.366906e+04
  2.832146e+01    1.310407e+04
  2.841300e+01    1.274176e+04
  2.850454e+01    1.248009e+04
  2.859608e+01    1.228082e+04
  2.868762e+01    1.209680e+04
  2.877916e+01    1.195079e+04
  2.887070e+01    1.187286e+04
  2.896225e+01    1.183253e+04
  2.905379e+01    1.169302e+04
  2.914533e+01    1.142226e+04
  2.923687e+01    1.120041e+04
  2.932841e+01    1.102628e+04
  2.941995e+01    1.092506e+04
  2.951149e+01    1.142302e+04
  2.960304e+01    1.220750e+04
  2.969458e+01    1.066601e+04
  2.978612e+01    1.026847e+04
  2.987766e+01    1.010479e+04
  2.996920e+01    1.003519e+04
  3.006074e+01    9.984123e+03
  3.015228e+01    9.979088e+03
  3.024383e+01    9.960995e+03
  3.033537e+01    1.004880e+04
  3.042691e+01    1.035886e+04
  3.051845e+01    1.144363e+04
  3.060999e+01    1.768021e+04
  3.070153e+01    4.068257e+04
  3.079308e+01    2.901492e+04
  3.088462e+01    1.501622e+04
  3.097616e+01    1.587762e+04
  3.106770e+01    2.705607e+04
  3.115924e+01    1.392373e+04
  3.125078e+01    1.001024e+04
  3.134232e+01    9.370660e+03
  3.143387e+01    9.134634e+03
  3.152541e+01    8.984395e+03
  3.161695e+01    8.894885e+03
  3.170849e+01    8.807326e+03
  3.180003e+01    8.743120e+03
  3.189157e+01    8.696469e+03
  3.198311e+01    8.674339e+03
  3.207466e+01    8.671607e+03
  3.216620e+01    8.646073e+03
  3.225774e+01    8.558662e+03
  3.234928e+01    8.594482e+03
  3.244082e+01    9.541862e+03
  3.253236e+01    9.406473e+03
  3.262390e+01    8.455158e+03
  3.271545e+01    8.335744e+03
  3.280699e+01    8.308072e+03
  3.289853e+01    8.205257e+03
  3.299007e+01    8.059835e+03
  3.308161e+01    7.980823e+03
  3.317315e+01    7.929816e+03
  3.326469e+01    7.891053e+03
  3.335624e+01    7.866911e+03
  3.344778e+01    7.855669e+03
  3.353932e+01    7.875612e+03
  3.363086e+01    8.027048e+03
  3.372240e+01    9.152599e+03
  3.381394e+01    1.798005e+04
  3.390549e+01    1.499224e+04
  3.399703e+01    8.545255e+03
  3.408857e+01    7.737646e+03
  3.418011e+01    7.542864e+03
  3.427165e+01    7.464347e+03
  3.436319e+01    7.410148e+03
  3.445473e+01    7.377161e+03
  3.454628e+01    7.340166e+03
  3.463782e+01    7.321929e+03
  3.472936e+01    7.321194e+03
  3.482090e+01    7.337022e+03
  3.491244e+01    7.358287e+03
  3.500398e+01    7.330008e+03
  3.509552e+01    7.219275e+03
  3.518707e+01    7.116428e+03
  3.527861e+01    7.026249e+03
  3.537015e+01    6.940784e+03
  3.546169e+01    6.888613e+03
  3.555323e+01    6.837371e+03
  3.564477e+01    6.805192e+03
  3.573631e+01    6.779481e+03
  3.582786e+01    6.764331e+03
  3.591940e+01    6.764354e+03
  3.601094e+01    6.776742e+03
  3.610248e+01    6.804756e+03
  3.619402e+01    6.861542e+03
  3.628556e+01    7.086732e+03
  3.637710e+01    9.228415e+03
  3.646865e+01    1.126817e+04
  3.656019e+01    7.555262e+03
  3.665173e+01    6.968284e+03
  3.674327e+01    6.900964e+03
  3.683481e+01    6.897833e+03
  3.692635e+01    6.916693e+03
  3.701790e+01    6.941931e+03
  3.710944e+01    7.005494e+03
  3.720098e+01    7.112048e+03
  3.729252e+01    7.267422e+03
  3.738406e+01    7.636483e+03
  3.747560e+01    8.751026e+03
  3.756714e+01    1.635259e+04
  3.765869e+01    6.384202e+04
  3.775023e+01    3.350571e+04
  3.784177e+01    1.062730e+04
  3.793331e+01    8.118305e+03
  3.802485e+01    7.486933e+03
  3.811639e+01    7.252341e+03
  3.820793e+01    7.124941e+03
  3.829948e+01    7.064518e+03
  3.839102e+01    7.030200e+03
  3.848256e+01    7.020498e+03
  3.857410e+01    7.028439e+03
  3.866564e+01    7.048150e+03
  3.875718e+01    7.240062e+03
  3.884872e+01    8.898453e+03
  3.894027e+01    8.274468e+03
  3.903181e+01    7.088259e+03
  3.912335e+01    6.929580e+03
  3.921489e+01    6.880998e+03
  3.930643e+01    6.857348e+03
  3.939797e+01    6.852638e+03
  3.948951e+01    6.845543e+03
  3.958106e+01    6.827393e+03
  3.967260e+01    6.802859e+03
  3.976414e+01    6.743103e+03
  3.985568e+01    6.708426e+03
  3.994722e+01    6.777561e+03
  4.003876e+01    7.235840e+03
  4.013031e+01    6.884754e+03
  4.022185e+01    6.647423e+03
  4.031339e+01    6.602478e+03
  4.040493e+01    6.589118e+03
  4.049647e+01    6.574623e+03
  4.058801e+01    6.555966e+03
  4.067955e+01    6.553260e+03
  4.077110e+01    6.566783e+03
  4.086264e+01    6.595587e+03
  4.095418e+01    6.647357e+03
  4.104572e+01    6.964273e+03
  4.113726e+01    1.006936e+04
  4.122880e+01    1.207737e+04
  4.132034e+01    7.458823e+03
  4.141189e+01    6.815063e+03
  4.150343e+01    6.697391e+03
  4.159497e+01    6.646086e+03
  4.168651e+01    6.603035e+03
  4.177805e+01    6.564349e+03
  4.186959e+01    6.559066e+03
  4.196113e+01    6.603265e+03
  4.205268e+01    6.689203e+03
  4.214422e+01    6.756706e+03
  4.223576e+01    7.148138e+03
  4.232730e+01    7.909374e+03
  4.241884e+01    6.749400e+03
  4.251038e+01    6.468171e+03
  4.260192e+01    6.405926e+03
  4.269347e+01    6.385283e+03
  4.278501e+01    6.361240e+03
  4.287655e+01    6.347927e+03
  4.296809e+01    6.375699e+03
  4.305963e+01    6.394668e+03
  4.315117e+01    6.469752e+03
  4.324272e+01    6.670278e+03
  4.333426e+01    8.612776e+03
  4.342580e+01    1.157010e+04
  4.351734e+01    7.430060e+03
  4.360888e+01    6.714771e+03
  4.370042e+01    6.832917e+03
  4.379196e+01    7.491860e+03
  4.388351e+01    1.149972e+04
  4.397505e+01    2.045785e+04
  4.406659e+01    1.334270e+04
  4.415813e+01    8.402618e+03
  4.424967e+01    7.520825e+03
  4.434121e+01    8.791603e+03
  4.443275e+01    2.278689e+04
  4.452430e+01    2.257700e+04
  4.461584e+01    8.629258e+03
  4.470738e+01    6.860079e+03
  4.479892e+01    6.504571e+03
  4.489046e+01    6.358236e+03
  4.498200e+01    6.315470e+03
  4.507354e+01    6.279293e+03
  4.516509e+01    6.274016e+03
  4.525663e+01    6.307174e+03
  4.534817e+01    6.488236e+03
  4.543971e+01    8.040669e+03
  4.553125e+01    1.271811e+04
  4.562279e+01    7.920227e+03
  4.571433e+01    6.468429e+03
  4.580588e+01    6.302074e+03
  4.589742e+01    6.275638e+03
  4.598896e+01    6.305146e+03
  4.608050e+01    6.305027e+03
  4.617204e+01    6.267023e+03
  4.626358e+01    6.206879e+03
  4.635513e+01    6.174872e+03
  4.644667e+01    6.431683e+03
  4.653821e+01    8.035268e+03
  4.662975e+01    7.097424e+03
  4.672129e+01    6.379479e+03
  4.681283e+01    6.336292e+03
  4.690437e+01    6.323844e+03
  4.699592e+01    6.298028e+03
  4.708746e+01    6.305169e+03
  4.717900e+01    6.316512e+03
  4.727054e+01    6.369913e+03
  4.736208e+01    6.477676e+03
  4.745362e+01    6.785651e+03
  4.754516e+01    8.114632e+03
  4.763671e+01    7.651193e+03
  4.772825e+01    6.971959e+03
  4.781979e+01    6.584984e+03
  4.788844e+01    2.658348e+03

File: wam39b_rampe_3_xrd_000005_integrated.dat
# == pyFAI calibration ==
# Distance Sample to Detector: 0.261615 m
# PONI: 2.023e-01, 2.348e-01 m
# Rotations: -0.026380 0.002005 0.000000 rad
#
# == Fit2d calibration ==
# Distance Sample-beamCenter: 261.707 mm
# Center: x=6119.331, y=5134.776 pix
# Tilt: 1.516 deg  TiltPlanRot: 4.347 deg
#
# Detector Rayonix SX165	 PixelSize= 3.950e-05, 3.950e-05 m
#    Detector has a mask: True
#    Detector has a dark current: False
#    detector has a flat field: False
#
# Wavelength: 1.12713e-10 m
# Mask applied: from detector
# Dark current applied: False
# Flat field applied: False
# Polarization factor: None
# Normalization factor: 1.0
# --> ROCK\\WAM39B_integrated\wam39b_rampe_3_xrd_000005_integrated.dat
#       2th_deg             I
  2.502596e+01    4.640676e+03
  2.511750e+01    1.901864e+04
  2.520905e+01    1.929331e+04
  2.530059e+01    1.939534e+04
  2.539213e+01    1.887615e+04
  2.548367e+01    1.882050e+04
  2.557521e+01    1.901174e+04
  2.566675e+01    1.948835e+04
  2.575829e+01    1.975083e+04
  2.584984e+01    1.959833e+04
  2.594138e+01    1.922000e+04
  2.603292e+01    1.886585e+04
  2.612446e+01    1.852154e+04
  2.621600e+01    1.884627e+04
  2.630754e+01    2.090767e+04
  2.639908e+01    3.078930e+04
  2.649063e+01    3.669459e+04
  2.658217e+01    4.338256e+04
  2.667371e+01    2.450118e+04
  2.676525e+01    1.854736e+04
  2.685679e+01    1.706604e+04
  2.694833e+01    1.648791e+04
  2.703988e+01    1.615572e+04
  2.713142e+01    1.593371e+04
  2.722296e+01    1.569062e+04
  2.731450e+01    1.552637e+04
  2.740604e+01    1.534816e+04
  2.749758e+01    1.524252e+04
  2.758912e+01    1.518480e+04
  2.768067e+01    1.518171e+04
  2.777221e+01    1.525611e+04
  2.786375e+01    1.556991e+04
  2.795529e+01    1.662305e+04
  2.804683e+01    2.060428e+04
  2.813837e+01    1.794217e+04
  2.822991e+01    1.526586e+04
  2.832146e+01    1.445945e+04
  2.841300e+01    1.396112e+04
  2.850454e+01    1.366095e+04
  2.859608e+01    1.340734e+04
  2.868762e+01    1.318190e+04
  2.877916e+01    1.300935e+04
  2.887070e+01    1.288366e+04
  2.896225e+01    1.281269e+04
  2.905379e+01    1.274638e+04
  2.914533e+01    1.251929e+04
  2.923687e+01    1.223900e+04
  2.932841e+01    1.201848e+04
  2.941995e+01    1.184869e+04
  2.951149e+01    1.195349e+04
  2.960304e+01    1.330825e+04
  2.969458e+01    1.216112e+04
  2.978612e+01    1.124217e+04
  2.987766e+01    1.102676e+04
  2.996920e+01    1.091609e+04
  3.006074e+01    1.085506e+04
  3.015228e+01    1.082123e+04
  3.024383e+01    1.080626e+04
  3.033537e+01    1.083840e+04
  3.042691e+01    1.101309e+04
  3.051845e+01    1.155196e+04
  3.060999e+01    1.398014e+04
  3.070153e+01    2.830072e+04
  3.079308e+01    4.478423e+04
  3.088462e+01    2.232446e+04
  3.097616e+01    1.527822e+04
  3.106770e+01    2.542422e+04
  3.115924e+01    2.193669e+04
  3.125078e+01    1.182377e+04
  3.134232e+01    1.038882e+04
  3.143387e+01    1.001196e+04
  3.152541e+01    9.826219e+03
  3.161695e+01    9.694523e+03
  3.170849e+01    9.597854e+03
  3.180003e+01    9.516302e+03
  3.189157e+01    9.456854e+03
  3.198311e+01    9.418316e+03
  3.207466e+01    9.401799e+03
  3.216620e+01    9.395048e+03
  3.225774e+01    9.341511e+03
  3.234928e+01    9.277001e+03
  3.244082e+01    9.628140e+03
  3.253236e+01    1.083712e+04
  3.262390e+01    9.456665e+03
  3.271545e+01    9.081366e+03
  3.280699e+01    9.034515e+03
  3.289853e+01    8.967413e+03
  3.299007e+01    8.814354e+03
  3.308161e+01    8.694936e+03
  3.317315e+01    8.622210e+03
  3.326469e+01    8.575915e+03
  3.335624e+01    8.547897e+03
  3.344778e+01    8.520352e+03
  3.353932e+01    8.514956e+03
  3.363086e+01    8.582831e+03
  3.372240e+01    8.984873e+03
  3.381394e+01    1.290618e+04
  3.390549e+01    2.186784e+04
  3.399703e+01    1.118628e+04
  3.408857e+01    8.649612e+03
  3.418011e+01    8.266269e+03
  3.427165e+01    8.123771e+03
  3.436319e+01    8.051991e+03
  3.445473e+01    8.001458e+03
  3.454628e+01    7.971542e+03
  3.463782e+01    7.945581e+03
  3.472936e+01    7.930240e+03
  3.482090e+01    7.949424e+03
  3.491244e+01    7.962654e+03
  3.500398e+01    7.967379e+03
  3.509552e+01    7.891577e+03
  3.518707e+01    7.763752e+03
  3.527861e+01    7.664341e+03
  3.537015e+01    7.559940e+03
  3.546169e+01    7.482655e+03
  3.555323e+01    7.428966e+03
  3.564477e+01    7.385826e+03
  3.573631e+01    7.366230e+03
  3.582786e+01    7.348486e+03
  3.591940e+01    7.336503e+03
  3.601094e+01    7.348557e+03
  3.610248e+01    7.359446e+03
  3.619402e+01    7.404587e+03
  3.628556e+01    7.509255e+03
  3.637710e+01    8.166076e+03
  3.646865e+01    1.241736e+04
  3.656019e+01    9.937638e+03
  3.665173e+01    7.736543e+03
  3.674327e+01    7.509793e+03
  3.683481e+01    7.481529e+03
  3.692635e+01    7.497536e+03
  3.701790e+01    7.520455e+03
  3.710944e+01    7.568183e+03
  3.720098e+01    7.647158e+03
  3.729252e+01    7.768918e+03
  3.738406e+01    8.009798e+03
  3.747560e+01    8.610149e+03
  3.756714e+01    1.102981e+04
  3.765869e+01    3.415115e+04
  3.775023e+01    6.864329e+04
  3.784177e+01    1.900173e+04
  3.793331e+01    9.761854e+03
  3.802485e+01    8.395079e+03
  3.811639e+01    7.982472e+03
  3.820793e+01    7.781055e+03
  3.829948e+01    7.694850e+03
  3.839102e+01    7.640929e+03
  3.848256e+01    7.623447e+03
  3.857410e+01    7.619536e+03
  3.866564e+01    7.619236e+03
  3.875718e+01    7.674866e+03
  3.884872e+01    8.261500e+03
  3.894027e+01    1.007708e+04
  3.903181e+01    8.146211e+03
  3.912335e+01    7.576677e+03
  3.921489e+01    7.486120e+03
  3.930643e+01    7.435220e+03
  3.939797e+01    7.419917e+03
  3.948951e+01    7.413593e+03
  3.958106e+01    7.409331e+03
  3.967260e+01    7.377508e+03
  3.976414e+01    7.333848e+03
  3.985568e+01    7.289508e+03
  3.994722e+01    7.282446e+03
  4.003876e+01    7.499910e+03
  4.013031e+01    7.807479e+03
  4.022185e+01    7.285525e+03
  4.031339e+01    7.168052e+03
  4.040493e+01    7.138667e+03
  4.049647e+01    7.120669e+03
  4.058801e+01    7.107863e+03
  4.067955e+01    7.092884e+03
  4.077110e+01    7.093907e+03
  4.086264e+01    7.113961e+03
  4.095418e+01    7.152262e+03
  4.104572e+01    7.248698e+03
  4.113726e+01    8.033653e+03
  4.122880e+01    1.351570e+04
  4.132034e+01    1.060858e+04
  4.141189e+01    7.620990e+03
  4.150343e+01    7.311052e+03
  4.159497e+01    7.232544e+03
  4.168651e+01    7.172450e+03
  4.177805e+01    7.122289e+03
  4.186959e+01    7.093084e+03
  4.196113e+01    7.113288e+03
  4.205268e+01    7.172273e+03
  4.214422e+01    7.261363e+03
  4.223576e+01    7.369043e+03
  4.232730e+01    8.241092e+03
  4.241884e+01    8.135532e+03
  4.251038e+01    7.112148e+03
  4.260192e+01    6.957586e+03
  4.269347e+01    6.917300e+03
  4.278501e+01    6.888859e+03
  4.287655e+01    6.872843e+03
  4.296809e+01    6.883112e+03
  4.305963e+01    6.892288e+03
  4.315117e+01    6.936969e+03
  4.324272e+01    7.039225e+03
  4.333426e+01    7.463712e+03
  4.342580e+01    1.137796e+04
  4.351734e+01    1.089172e+04
  4.360888e+01    7.514879e+03
  4.370042e+01    7.240708e+03
  4.379196e+01    7.446325e+03
  4.388351e+01    8.423855e+03
  4.397505e+01    1.401050e+04
  4.406659e+01    2.240924e+04
  4.415813e+01    1.306645e+04
  4.424967e+01    8.807532e+03
  4.434121e+01    8.309064e+03
  4.443275e+01    1.156040e+04
  4.452430e+01    3.097606e+04
  4.461584e+01    1.708539e+04
  4.470738e+01    8.280108e+03
  4.479892e+01    7.248179e+03
  4.489046e+01    6.968550e+03
  4.498200e+01    6.868041e+03
  4.507354e+01    6.807019e+03
  4.516509e+01    6.790321e+03
  4.525663e+01    6.798444e+03
  4.534817e+01    6.852452e+03
  4.543971e+01    7.187717e+03
  4.553125e+01    1.051283e+04
  4.562279e+01    1.269346e+04
  4.571433e+01    7.686194e+03
  4.580588e+01    6.912955e+03
  4.589742e+01    6.792614e+03
  4.598896e+01    6.789405e+03
  4.608050e+01    6.807231e+03
  4.617204e+01    6.826567e+03
  4.626358e+01    6.763631e+03
  4.635513e+01    6.695051e+03
  4.644667e+01    6.722899e+03
  4.653821e+01    7.294520e+03
  4.662975e+01    8.797857e+03
  4.672129e+01    7.276675e+03
  4.681283e+01    6.904002e+03
  4.690437e+01    6.875823e+03
  4.699592e+01    6.872201e+03
  4.708746e+01    6.886843e+03
  4.717900e+01    6.873588e+03
  4.727054e+01    6.922765e+03
  4.736208e+01    7.011281e+03
  4.745362e+01    7.176882e+03
  4.754516e+01    7.806638e+03
  4.763671e+01    9.088393e+03
  4.772825e+01    7.858097e+03
  4.781979e+01    7.176991e+03
  4.788844e+01    2.871263e+03