Folder: heo-xas-xrd/Output/ROCK_XRD/WAM39B_integrated/rampe2 (part 6)

File: wam39b_rampe_2_xrd_000015_integrated.dat
# == pyFAI calibration ==
# Distance Sample to Detector: 0.261615 m
# PONI: 2.023e-01, 2.348e-01 m
# Rotations: -0.026380 0.002005 0.000000 rad
#
# == Fit2d calibration ==
# Distance Sample-beamCenter: 261.707 mm
# Center: x=6119.331, y=5134.776 pix
# Tilt: 1.516 deg  TiltPlanRot: 4.347 deg
#
# Detector Rayonix SX165	 PixelSize= 3.950e-05, 3.950e-05 m
#    Detector has a mask: True
#    Detector has a dark current: False
#    detector has a flat field: False
#
# Wavelength: 1.12713e-10 m
# Mask applied: from detector
# Dark current applied: False
# Flat field applied: False
# Polarization factor: None
# Normalization factor: 1.0
# --> ROCK\\WAM39B_integrated\wam39b_rampe_2_xrd_000015_integrated.dat
#       2th_deg             I
  2.502596e+01    4.556404e+03
  2.511750e+01    1.876803e+04
  2.520905e+01    1.904955e+04
  2.530059e+01    1.914697e+04
  2.539213e+01    1.863374e+04
  2.548367e+01    1.866740e+04
  2.557521e+01    1.883669e+04
  2.566675e+01    1.913301e+04
  2.575829e+01    1.911712e+04
  2.584984e+01    1.889020e+04
  2.594138e+01    1.861580e+04
  2.603292e+01    1.842594e+04
  2.612446e+01    1.860698e+04
  2.621600e+01    2.034868e+04
  2.630754e+01    2.995126e+04
  2.639908e+01    4.845248e+04
  2.649063e+01    3.759154e+04
  2.658217e+01    2.097223e+04
  2.667371e+01    1.774574e+04
  2.676525e+01    1.682423e+04
  2.685679e+01    1.638948e+04
  2.694833e+01    1.609988e+04
  2.703988e+01    1.585103e+04
  2.713142e+01    1.570336e+04
  2.722296e+01    1.548779e+04
  2.731450e+01    1.532424e+04
  2.740604e+01    1.515817e+04
  2.749758e+01    1.506213e+04
  2.758912e+01    1.502567e+04
  2.768067e+01    1.501610e+04
  2.777221e+01    1.513861e+04
  2.786375e+01    1.581179e+04
  2.795529e+01    1.917474e+04
  2.804683e+01    1.815284e+04
  2.813837e+01    1.517073e+04
  2.822991e+01    1.441894e+04
  2.832146e+01    1.401251e+04
  2.841300e+01    1.368886e+04
  2.850454e+01    1.345315e+04
  2.859608e+01    1.324283e+04
  2.868762e+01    1.306508e+04
  2.877916e+01    1.293908e+04
  2.887070e+01    1.286615e+04
  2.896225e+01    1.275693e+04
  2.905379e+01    1.254545e+04
  2.914533e+01    1.227962e+04
  2.923687e+01    1.207354e+04
  2.932841e+01    1.189207e+04
  2.941995e+01    1.190971e+04
  2.951149e+01    1.309300e+04
  2.960304e+01    1.238445e+04
  2.969458e+01    1.131306e+04
  2.978612e+01    1.105843e+04
  2.987766e+01    1.092468e+04
  2.996920e+01    1.086683e+04
  3.006074e+01    1.084298e+04
  3.015228e+01    1.086977e+04
  3.024383e+01    1.093015e+04
  3.033537e+01    1.124001e+04
  3.042691e+01    1.238646e+04
  3.051845e+01    1.916622e+04
  3.060999e+01    4.834254e+04
  3.070153e+01    3.195617e+04
  3.079308e+01    1.516166e+04
  3.088462e+01    1.334228e+04
  3.097616e+01    2.345004e+04
  3.106770e+01    2.295050e+04
  3.115924e+01    1.193551e+04
  3.125078e+01    1.037666e+04
  3.134232e+01    9.977834e+03
  3.143387e+01    9.803343e+03
  3.152541e+01    9.662192e+03
  3.161695e+01    9.572274e+03
  3.170849e+01    9.484130e+03
  3.180003e+01    9.409548e+03
  3.189157e+01    9.350901e+03
  3.198311e+01    9.292398e+03
  3.207466e+01    9.243188e+03
  3.216620e+01    9.195812e+03
  3.225774e+01    9.181921e+03
  3.234928e+01    9.536814e+03
  3.244082e+01    1.072854e+04
  3.253236e+01    9.462854e+03
  3.262390e+01    9.072114e+03
  3.271545e+01    9.008970e+03
  3.280699e+01    8.903119e+03
  3.289853e+01    8.772532e+03
  3.299007e+01    8.662246e+03
  3.308161e+01    8.600391e+03
  3.317315e+01    8.554494e+03
  3.326469e+01    8.521000e+03
  3.335624e+01    8.497036e+03
  3.344778e+01    8.499040e+03
  3.353932e+01    8.570219e+03
  3.363086e+01    8.980317e+03
  3.372240e+01    1.296226e+04
  3.381394e+01    2.145263e+04
  3.390549e+01    1.100915e+04
  3.399703e+01    8.626562e+03
  3.408857e+01    8.250302e+03
  3.418011e+01    8.117354e+03
  3.427165e+01    8.047181e+03
  3.436319e+01    8.010695e+03
  3.445473e+01    7.980898e+03
  3.454628e+01    7.946351e+03
  3.463782e+01    7.932006e+03
  3.472936e+01    7.913300e+03
  3.482090e+01    7.867929e+03
  3.491244e+01    7.810308e+03
  3.500398e+01    7.727186e+03
  3.509552e+01    7.652240e+03
  3.518707e+01    7.587323e+03
  3.527861e+01    7.544782e+03
  3.537015e+01    7.478890e+03
  3.546169e+01    7.435465e+03
  3.555323e+01    7.390651e+03
  3.564477e+01    7.361789e+03
  3.573631e+01    7.335659e+03
  3.582786e+01    7.320938e+03
  3.591940e+01    7.322072e+03
  3.601094e+01    7.344956e+03
  3.610248e+01    7.379231e+03
  3.619402e+01    7.499725e+03
  3.628556e+01    8.305963e+03
  3.637710e+01    1.251162e+04
  3.646865e+01    9.392243e+03
  3.656019e+01    7.677442e+03
  3.665173e+01    7.487708e+03
  3.674327e+01    7.458262e+03
  3.683481e+01    7.477728e+03
  3.692635e+01    7.504392e+03
  3.701790e+01    7.554707e+03
  3.710944e+01    7.642789e+03
  3.720098e+01    7.789220e+03
  3.729252e+01    8.069445e+03
  3.738406e+01    8.761592e+03
  3.747560e+01    1.183779e+04
  3.756714e+01    4.178634e+04
  3.765869e+01    6.131265e+04
  3.775023e+01    1.584575e+04
  3.784177e+01    9.395524e+03
  3.793331e+01    8.318485e+03
  3.802485e+01    7.935828e+03
  3.811639e+01    7.771217e+03
  3.820793e+01    7.663904e+03
  3.829948e+01    7.620428e+03
  3.839102e+01    7.586042e+03
  3.848256e+01    7.581830e+03
  3.857410e+01    7.602298e+03
  3.866564e+01    7.680385e+03
  3.875718e+01    8.563634e+03
  3.884872e+01    9.788177e+03
  3.894027e+01    7.925372e+03
  3.903181e+01    7.566584e+03
  3.912335e+01    7.502016e+03
  3.921489e+01    7.458480e+03
  3.930643e+01    7.424540e+03
  3.939797e+01    7.423951e+03
  3.948951e+01    7.381690e+03
  3.958106e+01    7.334629e+03
  3.967260e+01    7.305226e+03
  3.976414e+01    7.270504e+03
  3.985568e+01    7.298309e+03
  3.994722e+01    7.642877e+03
  4.003876e+01    7.685384e+03
  4.013031e+01    7.268135e+03
  4.022185e+01    7.187956e+03
  4.031339e+01    7.160293e+03
  4.040493e+01    7.153734e+03
  4.049647e+01    7.130679e+03
  4.058801e+01    7.119684e+03
  4.067955e+01    7.117184e+03
  4.077110e+01    7.135600e+03
  4.086264e+01    7.194495e+03
  4.095418e+01    7.355933e+03
  4.104572e+01    8.743311e+03
  4.113726e+01    1.397485e+04
  4.122880e+01    9.135676e+03
  4.132034e+01    7.435852e+03
  4.141189e+01    7.235115e+03
  4.150343e+01    7.159177e+03
  4.159497e+01    7.125295e+03
  4.168651e+01    7.095999e+03
  4.177805e+01    7.069778e+03
  4.186959e+01    7.061205e+03
  4.196113e+01    7.073562e+03
  4.205268e+01    7.102280e+03
  4.214422e+01    7.270224e+03
  4.223576e+01    8.401397e+03
  4.232730e+01    7.618237e+03
  4.241884e+01    7.041511e+03
  4.251038e+01    6.974102e+03
  4.260192e+01    6.943993e+03
  4.269347e+01    6.929707e+03
  4.278501e+01    6.921058e+03
  4.287655e+01    6.932936e+03
  4.296809e+01    6.965288e+03
  4.305963e+01    7.009988e+03
  4.315117e+01    7.147320e+03
  4.324272e+01    8.064650e+03
  4.333426e+01    1.263026e+04
  4.342580e+01    9.215729e+03
  4.351734e+01    7.474064e+03
  4.360888e+01    7.567756e+03
  4.370042e+01    8.982153e+03
  4.379196e+01    1.912745e+04
  4.388351e+01    2.148043e+04
  4.397505e+01    1.035163e+04
  4.406659e+01    7.955862e+03
  4.415813e+01    7.697682e+03
  4.424967e+01    8.446147e+03
  4.434121e+01    1.646310e+04
  4.443275e+01    2.979817e+04
  4.452430e+01    1.143741e+04
  4.461584e+01    7.715313e+03
  4.470738e+01    7.124623e+03
  4.479892e+01    6.947797e+03
  4.489046e+01    6.865063e+03
  4.498200e+01    6.841307e+03
  4.507354e+01    6.817940e+03
  4.516509e+01    6.831657e+03
  4.525663e+01    6.949437e+03
  4.534817e+01    7.723841e+03
  4.543971e+01    1.290051e+04
  4.553125e+01    1.005728e+04
  4.562279e+01    7.138933e+03
  4.571433e+01    6.808930e+03
  4.580588e+01    6.729935e+03
  4.589742e+01    6.697832e+03
  4.598896e+01    6.647975e+03
  4.608050e+01    6.614511e+03
  4.617204e+01    6.601067e+03
  4.626358e+01    6.639662e+03
  4.635513e+01    6.786684e+03
  4.644667e+01    8.102537e+03
  4.653821e+01    8.162371e+03
  4.662975e+01    6.913448e+03
  4.672129e+01    6.757438e+03
  4.681283e+01    6.738283e+03
  4.690437e+01    6.724575e+03
  4.699592e+01    6.739623e+03
  4.708746e+01    6.791078e+03
  4.717900e+01    6.833315e+03
  4.727054e+01    6.930887e+03
  4.736208e+01    7.098988e+03
  4.745362e+01    8.098674e+03
  4.754516e+01    8.442939e+03
  4.763671e+01    7.754902e+03
  4.772825e+01    7.512978e+03
  4.781979e+01    7.117829e+03
  4.788844e+01    2.861739e+03

File: wam39b_rampe_2_xrd_000016_integrated.dat
# == pyFAI calibration ==
# Distance Sample to Detector: 0.261615 m
# PONI: 2.023e-01, 2.348e-01 m
# Rotations: -0.026380 0.002005 0.000000 rad
#
# == Fit2d calibration ==
# Distance Sample-beamCenter: 261.707 mm
# Center: x=6119.331, y=5134.776 pix
# Tilt: 1.516 deg  TiltPlanRot: 4.347 deg
#
# Detector Rayonix SX165	 PixelSize= 3.950e-05, 3.950e-05 m
#    Detector has a mask: True
#    Detector has a dark current: False
#    detector has a flat field: False
#
# Wavelength: 1.12713e-10 m
# Mask applied: from detector
# Dark current applied: False
# Flat field applied: False
# Polarization factor: None
# Normalization factor: 1.0
# --> ROCK\\WAM39B_integrated\wam39b_rampe_2_xrd_000016_integrated.dat
#       2th_deg             I
  2.502596e+01    5.009759e+03
  2.511750e+01    2.053711e+04
  2.520905e+01    2.083103e+04
  2.530059e+01    2.096376e+04
  2.539213e+01    2.039596e+04
  2.548367e+01    2.039718e+04
  2.557521e+01    2.060066e+04
  2.566675e+01    2.091734e+04
  2.575829e+01    2.092503e+04
  2.584984e+01    2.066717e+04
  2.594138e+01    2.037972e+04
  2.603292e+01    2.014496e+04
  2.612446e+01    2.027464e+04
  2.621600e+01    2.188153e+04
  2.630754e+01    3.079088e+04
  2.639908e+01    5.106664e+04
  2.649063e+01    4.440035e+04
  2.658217e+01    2.379558e+04
  2.667371e+01    1.959540e+04
  2.676525e+01    1.844940e+04
  2.685679e+01    1.795048e+04
  2.694833e+01    1.760259e+04
  2.703988e+01    1.734946e+04
  2.713142e+01    1.715179e+04
  2.722296e+01    1.693102e+04
  2.731450e+01    1.674871e+04
  2.740604e+01    1.656827e+04
  2.749758e+01    1.646259e+04
  2.758912e+01    1.641763e+04
  2.768067e+01    1.641191e+04
  2.777221e+01    1.653395e+04
  2.786375e+01    1.716621e+04
  2.795529e+01    2.039886e+04
  2.804683e+01    2.045943e+04
  2.813837e+01    1.673678e+04
  2.822991e+01    1.579797e+04
  2.832146e+01    1.533203e+04
  2.841300e+01    1.495666e+04
  2.850454e+01    1.467251e+04
  2.859608e+01    1.447690e+04
  2.868762e+01    1.426058e+04
  2.877916e+01    1.411507e+04
  2.887070e+01    1.402361e+04
  2.896225e+01    1.390901e+04
  2.905379e+01    1.369074e+04
  2.914533e+01    1.340712e+04
  2.923687e+01    1.318054e+04
  2.932841e+01    1.296488e+04
  2.941995e+01    1.294455e+04
  2.951149e+01    1.405899e+04
  2.960304e+01    1.372367e+04
  2.969458e+01    1.237358e+04
  2.978612e+01    1.207418e+04
  2.987766e+01    1.190931e+04
  2.996920e+01    1.183145e+04
  3.006074e+01    1.181049e+04
  3.015228e+01    1.182805e+04
  3.024383e+01    1.188454e+04
  3.033537e+01    1.216577e+04
  3.042691e+01    1.320074e+04
  3.051845e+01    1.896260e+04
  3.060999e+01    4.900719e+04
  3.070153e+01    3.944448e+04
  3.079308e+01    1.749067e+04
  3.088462e+01    1.433640e+04
  3.097616e+01    2.320784e+04
  3.106770e+01    2.735055e+04
  3.115924e+01    1.354479e+04
  3.125078e+01    1.138315e+04
  3.134232e+01    1.090091e+04
  3.143387e+01    1.068284e+04
  3.152541e+01    1.053920e+04
  3.161695e+01    1.042006e+04
  3.170849e+01    1.032914e+04
  3.180003e+01    1.024725e+04
  3.189157e+01    1.018850e+04
  3.198311e+01    1.012927e+04
  3.207466e+01    1.006939e+04
  3.216620e+01    1.001018e+04
  3.225774e+01    9.977669e+03
  3.234928e+01    1.025515e+04
  3.244082e+01    1.166672e+04
  3.253236e+01    1.044404e+04
  3.262390e+01    9.897245e+03
  3.271545e+01    9.812202e+03
  3.280699e+01    9.698559e+03
  3.289853e+01    9.566719e+03
  3.299007e+01    9.452763e+03
  3.308161e+01    9.366396e+03
  3.317315e+01    9.318888e+03
  3.326469e+01    9.279023e+03
  3.335624e+01    9.254291e+03
  3.344778e+01    9.250232e+03
  3.353932e+01    9.302287e+03
  3.363086e+01    9.640646e+03
  3.372240e+01    1.281663e+04
  3.381394e+01    2.379011e+04
  3.390549e+01    1.298251e+04
  3.399703e+01    9.487258e+03
  3.408857e+01    9.004194e+03
  3.418011e+01    8.850057e+03
  3.427165e+01    8.766084e+03
  3.436319e+01    8.717203e+03
  3.445473e+01    8.674651e+03
  3.454628e+01    8.656861e+03
  3.463782e+01    8.625862e+03
  3.472936e+01    8.620636e+03
  3.482090e+01    8.576414e+03
  3.491244e+01    8.522001e+03
  3.500398e+01    8.428283e+03
  3.509552e+01    8.337911e+03
  3.518707e+01    8.268271e+03
  3.527861e+01    8.215043e+03
  3.537015e+01    8.138767e+03
  3.546169e+01    8.086718e+03
  3.555323e+01    8.048148e+03
  3.564477e+01    8.006374e+03
  3.573631e+01    7.985789e+03
  3.582786e+01    7.970390e+03
  3.591940e+01    7.973487e+03
  3.601094e+01    7.992536e+03
  3.610248e+01    8.025544e+03
  3.619402e+01    8.132962e+03
  3.628556e+01    8.760960e+03
  3.637710e+01    1.310790e+04
  3.646865e+01    1.093030e+04
  3.656019e+01    8.432728e+03
  3.665173e+01    8.154623e+03
  3.674327e+01    8.118687e+03
  3.683481e+01    8.129174e+03
  3.692635e+01    8.173940e+03
  3.701790e+01    8.213388e+03
  3.710944e+01    8.302617e+03
  3.720098e+01    8.455474e+03
  3.729252e+01    8.722818e+03
  3.738406e+01    9.358663e+03
  3.747560e+01    1.188493e+04
  3.756714e+01    3.587675e+04
  3.765869e+01    7.415112e+04
  3.775023e+01    2.057661e+04
  3.784177e+01    1.059667e+04
  3.793331e+01    9.164480e+03
  3.802485e+01    8.676328e+03
  3.811639e+01    8.490024e+03
  3.820793e+01    8.369461e+03
  3.829948e+01    8.312496e+03
  3.839102e+01    8.271762e+03
  3.848256e+01    8.263274e+03
  3.857410e+01    8.280568e+03
  3.866564e+01    8.344703e+03
  3.875718e+01    9.011629e+03
  3.884872e+01    1.085949e+04
  3.894027e+01    8.813765e+03
  3.903181e+01    8.264664e+03
  3.912335e+01    8.171565e+03
  3.921489e+01    8.124177e+03
  3.930643e+01    8.086187e+03
  3.939797e+01    8.085748e+03
  3.948951e+01    8.052409e+03
  3.958106e+01    8.008555e+03
  3.967260e+01    7.964954e+03
  3.976414e+01    7.924615e+03
  3.985568e+01    7.940890e+03
  3.994722e+01    8.214681e+03
  4.003876e+01    8.463693e+03
  4.013031e+01    7.952814e+03
  4.022185e+01    7.843672e+03
  4.031339e+01    7.814676e+03
  4.040493e+01    7.794832e+03
  4.049647e+01    7.770012e+03
  4.058801e+01    7.755824e+03
  4.067955e+01    7.756024e+03
  4.077110e+01    7.789432e+03
  4.086264e+01    7.828187e+03
  4.095418e+01    7.964748e+03
  4.104572e+01    8.969149e+03
  4.113726e+01    1.488974e+04
  4.122880e+01    1.084718e+04
  4.132034e+01    8.198988e+03
  4.141189e+01    7.891634e+03
  4.150343e+01    7.817110e+03
  4.159497e+01    7.770280e+03
  4.168651e+01    7.738923e+03
  4.177805e+01    7.708647e+03
  4.186959e+01    7.701787e+03
  4.196113e+01    7.712341e+03
  4.205268e+01    7.745130e+03
  4.214422e+01    7.854255e+03
  4.223576e+01    8.967146e+03
  4.232730e+01    8.547797e+03
  4.241884e+01    7.701053e+03
  4.251038e+01    7.605345e+03
  4.260192e+01    7.566970e+03
  4.269347e+01    7.560158e+03
  4.278501e+01    7.536113e+03
  4.287655e+01    7.545716e+03
  4.296809e+01    7.568084e+03
  4.305963e+01    7.621081e+03
  4.315117e+01    7.741942e+03
  4.324272e+01    8.397660e+03
  4.333426e+01    1.313522e+04
  4.342580e+01    1.095229e+04
  4.351734e+01    8.197904e+03
  4.360888e+01    8.159296e+03
  4.370042e+01    9.205183e+03
  4.379196e+01    1.743263e+04
  4.388351e+01    2.548776e+04
  4.397505e+01    1.255364e+04
  4.406659e+01    8.864066e+03
  4.415813e+01    8.365445e+03
  4.424967e+01    8.895025e+03
  4.434121e+01    1.461049e+04
  4.443275e+01    3.381732e+04
  4.452430e+01    1.479296e+04
  4.461584e+01    8.653772e+03
  4.470738e+01    7.826836e+03
  4.479892e+01    7.601899e+03
  4.489046e+01    7.493938e+03
  4.498200e+01    7.467815e+03
  4.507354e+01    7.435544e+03
  4.516509e+01    7.448403e+03
  4.525663e+01    7.532018e+03
  4.534817e+01    8.094747e+03
  4.543971e+01    1.289503e+04
  4.553125e+01    1.223262e+04
  4.562279e+01    7.957848e+03
  4.571433e+01    7.453876e+03
  4.580588e+01    7.347192e+03
  4.589742e+01    7.308208e+03
  4.598896e+01    7.276647e+03
  4.608050e+01    7.228624e+03
  4.617204e+01    7.208073e+03
  4.626358e+01    7.221206e+03
  4.635513e+01    7.346233e+03
  4.644667e+01    8.384667e+03
  4.653821e+01    9.264147e+03
  4.662975e+01    7.638785e+03
  4.672129e+01    7.397629e+03
  4.681283e+01    7.361833e+03
  4.690437e+01    7.340187e+03
  4.699592e+01    7.356795e+03
  4.708746e+01    7.413555e+03
  4.717900e+01    7.467892e+03
  4.727054e+01    7.553488e+03
  4.736208e+01    7.726137e+03
  4.745362e+01    8.542869e+03
  4.754516e+01    9.451603e+03
  4.763671e+01    8.545099e+03
  4.772825e+01    8.211515e+03
  4.781979e+01    7.767990e+03
  4.788844e+01    3.150087e+03

File: wam39b_rampe_2_xrd_000017_integrated.dat
# == pyFAI calibration ==
# Distance Sample to Detector: 0.261615 m
# PONI: 2.023e-01, 2.348e-01 m
# Rotations: -0.026380 0.002005 0.000000 rad
#
# == Fit2d calibration ==
# Distance Sample-beamCenter: 261.707 mm
# Center: x=6119.331, y=5134.776 pix
# Tilt: 1.516 deg  TiltPlanRot: 4.347 deg
#
# Detector Rayonix SX165	 PixelSize= 3.950e-05, 3.950e-05 m
#    Detector has a mask: True
#    Detector has a dark current: False
#    detector has a flat field: False
#
# Wavelength: 1.12713e-10 m
# Mask applied: from detector
# Dark current applied: False
# Flat field applied: False
# Polarization factor: None
# Normalization factor: 1.0
# --> ROCK\\WAM39B_integrated\wam39b_rampe_2_xrd_000017_integrated.dat
#       2th_deg             I
  2.502596e+01    4.455958e+03
  2.511750e+01    1.824646e+04
  2.520905e+01    1.852559e+04
  2.530059e+01    1.862971e+04
  2.539213e+01    1.814682e+04
  2.548367e+01    1.818738e+04
  2.557521e+01    1.838589e+04
  2.566675e+01    1.869157e+04
  2.575829e+01    1.866928e+04
  2.584984e+01    1.840076e+04
  2.594138e+01    1.812636e+04
  2.603292e+01    1.794148e+04
  2.612446e+01    1.816803e+04
  2.621600e+01    1.998406e+04
  2.630754e+01    2.982249e+04
  2.639908e+01    4.722435e+04
  2.649063e+01    3.580688e+04
  2.658217e+01    2.030769e+04
  2.667371e+01    1.724799e+04
  2.676525e+01    1.637038e+04
  2.685679e+01    1.596406e+04
  2.694833e+01    1.566605e+04
  2.703988e+01    1.544345e+04
  2.713142e+01    1.528052e+04
  2.722296e+01    1.507839e+04
  2.731450e+01    1.492233e+04
  2.740604e+01    1.476214e+04
  2.749758e+01    1.467425e+04
  2.758912e+01    1.464337e+04
  2.768067e+01    1.464898e+04
  2.777221e+01    1.479819e+04
  2.786375e+01    1.552250e+04
  2.795529e+01    1.895373e+04
  2.804683e+01    1.755395e+04
  2.813837e+01    1.478131e+04
  2.822991e+01    1.404969e+04
  2.832146e+01    1.364311e+04
  2.841300e+01    1.331627e+04
  2.850454e+01    1.309459e+04
  2.859608e+01    1.290315e+04
  2.868762e+01    1.272925e+04
  2.877916e+01    1.259504e+04
  2.887070e+01    1.253571e+04
  2.896225e+01    1.242567e+04
  2.905379e+01    1.221841e+04
  2.914533e+01    1.196611e+04
  2.923687e+01    1.176217e+04
  2.932841e+01    1.158024e+04
  2.941995e+01    1.163918e+04
  2.951149e+01    1.283210e+04
  2.960304e+01    1.197501e+04
  2.969458e+01    1.101664e+04
  2.978612e+01    1.076629e+04
  2.987766e+01    1.064590e+04
  2.996920e+01    1.057538e+04
  3.006074e+01    1.057390e+04
  3.015228e+01    1.059560e+04
  3.024383e+01    1.065034e+04
  3.033537e+01    1.097091e+04
  3.042691e+01    1.215286e+04
  3.051845e+01    1.917120e+04
  3.060999e+01    4.729357e+04
  3.070153e+01    3.013329e+04
  3.079308e+01    1.462001e+04
  3.088462e+01    1.314247e+04
  3.097616e+01    2.369996e+04
  3.106770e+01    2.152490e+04
  3.115924e+01    1.147984e+04
  3.125078e+01    1.007668e+04
  3.134232e+01    9.706358e+03
  3.143387e+01    9.549434e+03
  3.152541e+01    9.401742e+03
  3.161695e+01    9.315447e+03
  3.170849e+01    9.242396e+03
  3.180003e+01    9.166403e+03
  3.189157e+01    9.111922e+03
  3.198311e+01    9.067275e+03
  3.207466e+01    9.016706e+03
  3.216620e+01    8.971354e+03
  3.225774e+01    8.955931e+03
  3.234928e+01    9.350587e+03
  3.244082e+01    1.044427e+04
  3.253236e+01    9.175086e+03
  3.262390e+01    8.848259e+03
  3.271545e+01    8.780129e+03
  3.280699e+01    8.667835e+03
  3.289853e+01    8.553626e+03
  3.299007e+01    8.443998e+03
  3.308161e+01    8.384490e+03
  3.317315e+01    8.347151e+03
  3.326469e+01    8.310407e+03
  3.335624e+01    8.283367e+03
  3.344778e+01    8.282525e+03
  3.353932e+01    8.360238e+03
  3.363086e+01    8.818331e+03
  3.372240e+01    1.319688e+04
  3.381394e+01    2.055726e+04
  3.390549e+01    1.044327e+04
  3.399703e+01    8.367558e+03
  3.408857e+01    8.029235e+03
  3.418011e+01    7.907599e+03
  3.427165e+01    7.847811e+03
  3.436319e+01    7.806901e+03
  3.445473e+01    7.776111e+03
  3.454628e+01    7.752696e+03
  3.463782e+01    7.729967e+03
  3.472936e+01    7.716620e+03
  3.482090e+01    7.687421e+03
  3.491244e+01    7.627598e+03
  3.500398e+01    7.545527e+03
  3.509552e+01    7.462471e+03
  3.518707e+01    7.398347e+03
  3.527861e+01    7.355011e+03
  3.537015e+01    7.292509e+03
  3.546169e+01    7.237885e+03
  3.555323e+01    7.209162e+03
  3.564477e+01    7.171237e+03
  3.573631e+01    7.153943e+03
  3.582786e+01    7.140100e+03
  3.591940e+01    7.137255e+03
  3.601094e+01    7.162488e+03
  3.610248e+01    7.199681e+03
  3.619402e+01    7.324196e+03
  3.628556e+01    8.236077e+03
  3.637710e+01    1.231085e+04
  3.646865e+01    8.941805e+03
  3.656019e+01    7.462491e+03
  3.665173e+01    7.292058e+03
  3.674327e+01    7.273837e+03
  3.683481e+01    7.292722e+03
  3.692635e+01    7.322112e+03
  3.701790e+01    7.373404e+03
  3.710944e+01    7.459645e+03
  3.720098e+01    7.608516e+03
  3.729252e+01    7.892985e+03
  3.738406e+01    8.611400e+03
  3.747560e+01    1.202957e+04
  3.756714e+01    4.467489e+04
  3.765869e+01    5.649530e+04
  3.775023e+01    1.456059e+04
  3.784177e+01    9.052737e+03
  3.793331e+01    8.080521e+03
  3.802485e+01    7.730169e+03
  3.811639e+01    7.575836e+03
  3.820793e+01    7.474441e+03
  3.829948e+01    7.426485e+03
  3.839102e+01    7.398659e+03
  3.848256e+01    7.392626e+03
  3.857410e+01    7.416382e+03
  3.866564e+01    7.504506e+03
  3.875718e+01    8.496354e+03
  3.884872e+01    9.439754e+03
  3.894027e+01    7.669524e+03
  3.903181e+01    7.374201e+03
  3.912335e+01    7.304095e+03
  3.921489e+01    7.259912e+03
  3.930643e+01    7.240729e+03
  3.939797e+01    7.231398e+03
  3.948951e+01    7.204322e+03
  3.958106e+01    7.163541e+03
  3.967260e+01    7.122839e+03
  3.976414e+01    7.092381e+03
  3.985568e+01    7.117703e+03
  3.994722e+01    7.487984e+03
  4.003876e+01    7.448764e+03
  4.013031e+01    7.073968e+03
  4.022185e+01    7.008832e+03
  4.031339e+01    6.986136e+03
  4.040493e+01    6.970959e+03
  4.049647e+01    6.959711e+03
  4.058801e+01    6.940407e+03
  4.067955e+01    6.942389e+03
  4.077110e+01    6.963645e+03
  4.086264e+01    7.012187e+03
  4.095418e+01    7.197025e+03
  4.104572e+01    8.803994e+03
  4.113726e+01    1.359827e+04
  4.122880e+01    8.653413e+03
  4.132034e+01    7.220819e+03
  4.141189e+01    7.047640e+03
  4.150343e+01    6.983980e+03
  4.159497e+01    6.938572e+03
  4.168651e+01    6.922541e+03
  4.177805e+01    6.892530e+03
  4.186959e+01    6.889515e+03
  4.196113e+01    6.908689e+03
  4.205268e+01    6.944900e+03
  4.214422e+01    7.138396e+03
  4.223576e+01    8.244564e+03
  4.232730e+01    7.345221e+03
  4.241884e+01    6.861531e+03
  4.251038e+01    6.799232e+03
  4.260192e+01    6.768688e+03
  4.269347e+01    6.758176e+03
  4.278501e+01    6.752846e+03
  4.287655e+01    6.753772e+03
  4.296809e+01    6.785619e+03
  4.305963e+01    6.854201e+03
  4.315117e+01    6.984889e+03
  4.324272e+01    8.047684e+03
  4.333426e+01    1.242531e+04
  4.342580e+01    8.701931e+03
  4.351734e+01    7.262120e+03
  4.360888e+01    7.408029e+03
  4.370042e+01    8.936920e+03
  4.379196e+01    1.929549e+04
  4.388351e+01    2.025458e+04
  4.397505e+01    9.880384e+03
  4.406659e+01    7.732189e+03
  4.415813e+01    7.512484e+03
  4.424967e+01    8.386347e+03
  4.434121e+01    1.760695e+04
  4.443275e+01    2.806536e+04
  4.452430e+01    1.050989e+04
  4.461584e+01    7.453564e+03
  4.470738e+01    6.934140e+03
  4.479892e+01    6.769640e+03
  4.489046e+01    6.688172e+03
  4.498200e+01    6.662250e+03
  4.507354e+01    6.657133e+03
  4.516509e+01    6.666757e+03
  4.525663e+01    6.781871e+03
  4.534817e+01    7.714614e+03
  4.543971e+01    1.288507e+04
  4.553125e+01    9.373227e+03
  4.562279e+01    6.902127e+03
  4.571433e+01    6.630790e+03
  4.580588e+01    6.557811e+03
  4.589742e+01    6.530164e+03
  4.598896e+01    6.498611e+03
  4.608050e+01    6.472079e+03
  4.617204e+01    6.448313e+03
  4.626358e+01    6.478634e+03
  4.635513e+01    6.658751e+03
  4.644667e+01    8.066628e+03
  4.653821e+01    7.834429e+03
  4.662975e+01    6.724027e+03
  4.672129e+01    6.594487e+03
  4.681283e+01    6.565609e+03
  4.690437e+01    6.573367e+03
  4.699592e+01    6.579241e+03
  4.708746e+01    6.619790e+03
  4.717900e+01    6.673568e+03
  4.727054e+01    6.766466e+03
  4.736208e+01    6.961767e+03
  4.745362e+01    8.011966e+03
  4.754516e+01    8.108464e+03
  4.763671e+01    7.547522e+03
  4.772825e+01    7.310354e+03
  4.781979e+01    6.933051e+03
  4.788844e+01    2.809379e+03