Folder: heo-xas-xrd/Output/ROCK_XRD/WAM39B_integrated/rampe2 (part 3)

File: wam39b_rampe_2_xrd_000006_integrated.dat
# == pyFAI calibration ==
# Distance Sample to Detector: 0.261615 m
# PONI: 2.023e-01, 2.348e-01 m
# Rotations: -0.026380 0.002005 0.000000 rad
#
# == Fit2d calibration ==
# Distance Sample-beamCenter: 261.707 mm
# Center: x=6119.331, y=5134.776 pix
# Tilt: 1.516 deg  TiltPlanRot: 4.347 deg
#
# Detector Rayonix SX165	 PixelSize= 3.950e-05, 3.950e-05 m
#    Detector has a mask: True
#    Detector has a dark current: False
#    detector has a flat field: False
#
# Wavelength: 1.12713e-10 m
# Mask applied: from detector
# Dark current applied: False
# Flat field applied: False
# Polarization factor: None
# Normalization factor: 1.0
# --> ROCK\\WAM39B_integrated\wam39b_rampe_2_xrd_000006_integrated.dat
#       2th_deg             I
  2.502596e+01    4.268942e+03
  2.511750e+01    1.750556e+04
  2.520905e+01    1.776096e+04
  2.530059e+01    1.781588e+04
  2.539213e+01    1.732688e+04
  2.548367e+01    1.721397e+04
  2.557521e+01    1.714949e+04
  2.566675e+01    1.712842e+04
  2.575829e+01    1.698882e+04
  2.584984e+01    1.686556e+04
  2.594138e+01    1.691865e+04
  2.603292e+01    1.701814e+04
  2.612446e+01    1.738455e+04
  2.621600e+01    1.936016e+04
  2.630754e+01    3.017094e+04
  2.639908e+01    5.227305e+04
  2.649063e+01    3.119059e+04
  2.658217e+01    1.863393e+04
  2.667371e+01    1.636761e+04
  2.676525e+01    1.564471e+04
  2.685679e+01    1.527596e+04
  2.694833e+01    1.500897e+04
  2.703988e+01    1.480071e+04
  2.713142e+01    1.464310e+04
  2.722296e+01    1.444560e+04
  2.731450e+01    1.428581e+04
  2.740604e+01    1.412995e+04
  2.749758e+01    1.402615e+04
  2.758912e+01    1.392530e+04
  2.768067e+01    1.385380e+04
  2.777221e+01    1.382478e+04
  2.786375e+01    1.434635e+04
  2.795529e+01    1.754153e+04
  2.804683e+01    1.596866e+04
  2.813837e+01    1.356230e+04
  2.822991e+01    1.306810e+04
  2.832146e+01    1.284115e+04
  2.841300e+01    1.263844e+04
  2.850454e+01    1.247472e+04
  2.859608e+01    1.233093e+04
  2.868762e+01    1.218061e+04
  2.877916e+01    1.203938e+04
  2.887070e+01    1.191481e+04
  2.896225e+01    1.177616e+04
  2.905379e+01    1.160797e+04
  2.914533e+01    1.142259e+04
  2.923687e+01    1.126160e+04
  2.932841e+01    1.112085e+04
  2.941995e+01    1.120785e+04
  2.951149e+01    1.237800e+04
  2.960304e+01    1.144702e+04
  2.969458e+01    1.056690e+04
  2.978612e+01    1.034829e+04
  2.987766e+01    1.022098e+04
  2.996920e+01    1.016976e+04
  3.006074e+01    1.016605e+04
  3.015228e+01    1.017596e+04
  3.024383e+01    1.024962e+04
  3.033537e+01    1.059442e+04
  3.042691e+01    1.200453e+04
  3.051845e+01    2.244222e+04
  3.060999e+01    5.435701e+04
  3.070153e+01    2.344586e+04
  3.079308e+01    1.285353e+04
  3.088462e+01    1.248882e+04
  3.097616e+01    2.322558e+04
  3.106770e+01    2.004148e+04
  3.115924e+01    1.090342e+04
  3.125078e+01    9.648650e+03
  3.134232e+01    9.305618e+03
  3.143387e+01    9.152109e+03
  3.152541e+01    9.032749e+03
  3.161695e+01    8.933923e+03
  3.170849e+01    8.855678e+03
  3.180003e+01    8.775521e+03
  3.189157e+01    8.730415e+03
  3.198311e+01    8.667809e+03
  3.207466e+01    8.610515e+03
  3.216620e+01    8.569542e+03
  3.225774e+01    8.587423e+03
  3.234928e+01    8.998456e+03
  3.244082e+01    9.998164e+03
  3.253236e+01    8.749407e+03
  3.262390e+01    8.434675e+03
  3.271545e+01    8.334967e+03
  3.280699e+01    8.257138e+03
  3.289853e+01    8.163124e+03
  3.299007e+01    8.087755e+03
  3.308161e+01    8.024302e+03
  3.317315e+01    7.986617e+03
  3.326469e+01    7.954488e+03
  3.335624e+01    7.930714e+03
  3.344778e+01    7.943354e+03
  3.353932e+01    8.022979e+03
  3.363086e+01    8.487671e+03
  3.372240e+01    1.304579e+04
  3.381394e+01    1.946349e+04
  3.390549e+01    9.819129e+03
  3.399703e+01    8.000977e+03
  3.408857e+01    7.691978e+03
  3.418011e+01    7.576679e+03
  3.427165e+01    7.502243e+03
  3.436319e+01    7.444348e+03
  3.445473e+01    7.381687e+03
  3.454628e+01    7.342253e+03
  3.463782e+01    7.289070e+03
  3.472936e+01    7.250461e+03
  3.482090e+01    7.201399e+03
  3.491244e+01    7.158349e+03
  3.500398e+01    7.121292e+03
  3.509552e+01    7.087150e+03
  3.518707e+01    7.056833e+03
  3.527861e+01    7.033394e+03
  3.537015e+01    6.970335e+03
  3.546169e+01    6.929771e+03
  3.555323e+01    6.903613e+03
  3.564477e+01    6.868832e+03
  3.573631e+01    6.851386e+03
  3.582786e+01    6.841383e+03
  3.591940e+01    6.845112e+03
  3.601094e+01    6.863534e+03
  3.610248e+01    6.905595e+03
  3.619402e+01    7.029418e+03
  3.628556e+01    7.990142e+03
  3.637710e+01    1.184341e+04
  3.646865e+01    8.420821e+03
  3.656019e+01    7.134310e+03
  3.665173e+01    6.978649e+03
  3.674327e+01    6.967156e+03
  3.683481e+01    6.978356e+03
  3.692635e+01    7.015574e+03
  3.701790e+01    7.061978e+03
  3.710944e+01    7.152353e+03
  3.720098e+01    7.296949e+03
  3.729252e+01    7.575692e+03
  3.738406e+01    8.303482e+03
  3.747560e+01    1.189586e+04
  3.756714e+01    4.545854e+04
  3.765869e+01    5.186904e+04
  3.775023e+01    1.336035e+04
  3.784177e+01    8.597835e+03
  3.793331e+01    7.717361e+03
  3.802485e+01    7.383556e+03
  3.811639e+01    7.238327e+03
  3.820793e+01    7.140021e+03
  3.829948e+01    7.103635e+03
  3.839102e+01    7.066066e+03
  3.848256e+01    7.054545e+03
  3.857410e+01    7.080421e+03
  3.866564e+01    7.164379e+03
  3.875718e+01    8.195437e+03
  3.884872e+01    8.947466e+03
  3.894027e+01    7.289646e+03
  3.903181e+01    7.037990e+03
  3.912335e+01    6.979135e+03
  3.921489e+01    6.950353e+03
  3.930643e+01    6.920417e+03
  3.939797e+01    6.913652e+03
  3.948951e+01    6.874491e+03
  3.958106e+01    6.846864e+03
  3.967260e+01    6.811378e+03
  3.976414e+01    6.782276e+03
  3.985568e+01    6.813248e+03
  3.994722e+01    7.206520e+03
  4.003876e+01    7.119287e+03
  4.013031e+01    6.770837e+03
  4.022185e+01    6.716406e+03
  4.031339e+01    6.683639e+03
  4.040493e+01    6.677459e+03
  4.049647e+01    6.663719e+03
  4.058801e+01    6.651037e+03
  4.067955e+01    6.650432e+03
  4.077110e+01    6.665087e+03
  4.086264e+01    6.708409e+03
  4.095418e+01    6.893673e+03
  4.104572e+01    8.621217e+03
  4.113726e+01    1.293884e+04
  4.122880e+01    8.055254e+03
  4.132034e+01    6.833845e+03
  4.141189e+01    6.659477e+03
  4.150343e+01    6.613564e+03
  4.159497e+01    6.583674e+03
  4.168651e+01    6.576629e+03
  4.177805e+01    6.556653e+03
  4.186959e+01    6.539449e+03
  4.196113e+01    6.544024e+03
  4.205268e+01    6.566968e+03
  4.214422e+01    6.803396e+03
  4.223576e+01    7.879010e+03
  4.232730e+01    6.967011e+03
  4.241884e+01    6.557122e+03
  4.251038e+01    6.510094e+03
  4.260192e+01    6.484507e+03
  4.269347e+01    6.471905e+03
  4.278501e+01    6.470105e+03
  4.287655e+01    6.479624e+03
  4.296809e+01    6.497889e+03
  4.305963e+01    6.566776e+03
  4.315117e+01    6.715399e+03
  4.324272e+01    7.866513e+03
  4.333426e+01    1.192147e+04
  4.342580e+01    8.157085e+03
  4.351734e+01    6.957289e+03
  4.360888e+01    7.157427e+03
  4.370042e+01    9.703201e+03
  4.379196e+01    2.476011e+04
  4.388351e+01    1.590977e+04
  4.397505e+01    8.168818e+03
  4.406659e+01    7.112895e+03
  4.415813e+01    7.108054e+03
  4.424967e+01    8.052997e+03
  4.434121e+01    1.791501e+04
  4.443275e+01    2.608548e+04
  4.452430e+01    9.694047e+03
  4.461584e+01    7.091918e+03
  4.470738e+01    6.632176e+03
  4.479892e+01    6.489580e+03
  4.489046e+01    6.408203e+03
  4.498200e+01    6.379609e+03
  4.507354e+01    6.366282e+03
  4.516509e+01    6.395559e+03
  4.525663e+01    6.510193e+03
  4.534817e+01    7.516315e+03
  4.543971e+01    1.247591e+04
  4.553125e+01    8.691761e+03
  4.562279e+01    6.561515e+03
  4.571433e+01    6.300634e+03
  4.580588e+01    6.240400e+03
  4.589742e+01    6.203146e+03
  4.598896e+01    6.165510e+03
  4.608050e+01    6.146378e+03
  4.617204e+01    6.136653e+03
  4.626358e+01    6.172048e+03
  4.635513e+01    6.346675e+03
  4.644667e+01    7.753535e+03
  4.653821e+01    7.305967e+03
  4.662975e+01    6.314510e+03
  4.672129e+01    6.202630e+03
  4.681283e+01    6.201534e+03
  4.690437e+01    6.203364e+03
  4.699592e+01    6.249506e+03
  4.708746e+01    6.297112e+03
  4.717900e+01    6.356021e+03
  4.727054e+01    6.436838e+03
  4.736208e+01    6.663458e+03
  4.745362e+01    7.722635e+03
  4.754516e+01    7.674970e+03
  4.763671e+01    7.183852e+03
  4.772825e+01    6.975000e+03
  4.781979e+01    6.619186e+03
  4.788844e+01    2.665495e+03

File: wam39b_rampe_2_xrd_000007_integrated.dat
# == pyFAI calibration ==
# Distance Sample to Detector: 0.261615 m
# PONI: 2.023e-01, 2.348e-01 m
# Rotations: -0.026380 0.002005 0.000000 rad
#
# == Fit2d calibration ==
# Distance Sample-beamCenter: 261.707 mm
# Center: x=6119.331, y=5134.776 pix
# Tilt: 1.516 deg  TiltPlanRot: 4.347 deg
#
# Detector Rayonix SX165	 PixelSize= 3.950e-05, 3.950e-05 m
#    Detector has a mask: True
#    Detector has a dark current: False
#    detector has a flat field: False
#
# Wavelength: 1.12713e-10 m
# Mask applied: from detector
# Dark current applied: False
# Flat field applied: False
# Polarization factor: None
# Normalization factor: 1.0
# --> ROCK\\WAM39B_integrated\wam39b_rampe_2_xrd_000007_integrated.dat
#       2th_deg             I
  2.502596e+01    4.468839e+03
  2.511750e+01    1.836839e+04
  2.520905e+01    1.861772e+04
  2.530059e+01    1.872638e+04
  2.539213e+01    1.820326e+04
  2.548367e+01    1.811419e+04
  2.557521e+01    1.806850e+04
  2.566675e+01    1.810018e+04
  2.575829e+01    1.799614e+04
  2.584984e+01    1.792643e+04
  2.594138e+01    1.792470e+04
  2.603292e+01    1.795255e+04
  2.612446e+01    1.819824e+04
  2.621600e+01    1.989661e+04
  2.630754e+01    2.935102e+04
  2.639908e+01    5.204993e+04
  2.649063e+01    3.637343e+04
  2.658217e+01    2.030821e+04
  2.667371e+01    1.734830e+04
  2.676525e+01    1.646803e+04
  2.685679e+01    1.604602e+04
  2.694833e+01    1.576085e+04
  2.703988e+01    1.553497e+04
  2.713142e+01    1.536954e+04
  2.722296e+01    1.514889e+04
  2.731450e+01    1.499978e+04
  2.740604e+01    1.480690e+04
  2.749758e+01    1.470544e+04
  2.758912e+01    1.461352e+04
  2.768067e+01    1.453596e+04
  2.777221e+01    1.452962e+04
  2.786375e+01    1.494997e+04
  2.795529e+01    1.795061e+04
  2.804683e+01    1.739481e+04
  2.813837e+01    1.442940e+04
  2.822991e+01    1.381862e+04
  2.832146e+01    1.354320e+04
  2.841300e+01    1.331701e+04
  2.850454e+01    1.313994e+04
  2.859608e+01    1.298128e+04
  2.868762e+01    1.281609e+04
  2.877916e+01    1.267353e+04
  2.887070e+01    1.256834e+04
  2.896225e+01    1.242993e+04
  2.905379e+01    1.226035e+04
  2.914533e+01    1.203713e+04
  2.923687e+01    1.185859e+04
  2.932841e+01    1.168374e+04
  2.941995e+01    1.169774e+04
  2.951149e+01    1.279271e+04
  2.960304e+01    1.221763e+04
  2.969458e+01    1.111264e+04
  2.978612e+01    1.085371e+04
  2.987766e+01    1.071057e+04
  2.996920e+01    1.064451e+04
  3.006074e+01    1.063401e+04
  3.015228e+01    1.066269e+04
  3.024383e+01    1.071931e+04
  3.033537e+01    1.103167e+04
  3.042691e+01    1.224486e+04
  3.051845e+01    2.014977e+04
  3.060999e+01    5.274985e+04
  3.070153e+01    2.921167e+04
  3.079308e+01    1.438925e+04
  3.088462e+01    1.284826e+04
  3.097616e+01    2.213883e+04
  3.106770e+01    2.333613e+04
  3.115924e+01    1.185981e+04
  3.125078e+01    1.018749e+04
  3.134232e+01    9.779561e+03
  3.143387e+01    9.595707e+03
  3.152541e+01    9.465026e+03
  3.161695e+01    9.356330e+03
  3.170849e+01    9.285623e+03
  3.180003e+01    9.207805e+03
  3.189157e+01    9.142491e+03
  3.198311e+01    9.077146e+03
  3.207466e+01    9.018475e+03
  3.216620e+01    8.975832e+03
  3.225774e+01    8.972196e+03
  3.234928e+01    9.287948e+03
  3.244082e+01    1.050848e+04
  3.253236e+01    9.326654e+03
  3.262390e+01    8.895228e+03
  3.271545e+01    8.806416e+03
  3.280699e+01    8.708232e+03
  3.289853e+01    8.589984e+03
  3.299007e+01    8.487257e+03
  3.308161e+01    8.424452e+03
  3.317315e+01    8.371576e+03
  3.326469e+01    8.338093e+03
  3.335624e+01    8.310139e+03
  3.344778e+01    8.314287e+03
  3.353932e+01    8.372661e+03
  3.363086e+01    8.747018e+03
  3.372240e+01    1.224671e+04
  3.381394e+01    2.122612e+04
  3.390549e+01    1.110361e+04
  3.399703e+01    8.476503e+03
  3.408857e+01    8.083974e+03
  3.418011e+01    7.957024e+03
  3.427165e+01    7.884772e+03
  3.436319e+01    7.833651e+03
  3.445473e+01    7.771407e+03
  3.454628e+01    7.726611e+03
  3.463782e+01    7.670611e+03
  3.472936e+01    7.627939e+03
  3.482090e+01    7.578815e+03
  3.491244e+01    7.519043e+03
  3.500398e+01    7.466686e+03
  3.509552e+01    7.423386e+03
  3.518707e+01    7.398053e+03
  3.527861e+01    7.370507e+03
  3.537015e+01    7.306892e+03
  3.546169e+01    7.266855e+03
  3.555323e+01    7.232690e+03
  3.564477e+01    7.200898e+03
  3.573631e+01    7.176109e+03
  3.582786e+01    7.160759e+03
  3.591940e+01    7.165604e+03
  3.601094e+01    7.189814e+03
  3.610248e+01    7.225824e+03
  3.619402e+01    7.340287e+03
  3.628556e+01    8.028941e+03
  3.637710e+01    1.209853e+04
  3.646865e+01    9.440412e+03
  3.656019e+01    7.534308e+03
  3.665173e+01    7.324592e+03
  3.674327e+01    7.298043e+03
  3.683481e+01    7.311662e+03
  3.692635e+01    7.347364e+03
  3.701790e+01    7.398242e+03
  3.710944e+01    7.472150e+03
  3.720098e+01    7.622922e+03
  3.729252e+01    7.881164e+03
  3.738406e+01    8.516056e+03
  3.747560e+01    1.123532e+04
  3.756714e+01    3.758293e+04
  3.765869e+01    6.293141e+04
  3.775023e+01    1.656856e+04
  3.784177e+01    9.316501e+03
  3.793331e+01    8.185290e+03
  3.802485e+01    7.784958e+03
  3.811639e+01    7.604931e+03
  3.820793e+01    7.507867e+03
  3.829948e+01    7.461583e+03
  3.839102e+01    7.410562e+03
  3.848256e+01    7.409890e+03
  3.857410e+01    7.419859e+03
  3.866564e+01    7.475285e+03
  3.875718e+01    8.239223e+03
  3.884872e+01    9.640255e+03
  3.894027e+01    7.794552e+03
  3.903181e+01    7.405160e+03
  3.912335e+01    7.329712e+03
  3.921489e+01    7.289639e+03
  3.930643e+01    7.266635e+03
  3.939797e+01    7.251820e+03
  3.948951e+01    7.232754e+03
  3.958106e+01    7.176988e+03
  3.967260e+01    7.152681e+03
  3.976414e+01    7.120754e+03
  3.985568e+01    7.144515e+03
  3.994722e+01    7.451162e+03
  4.003876e+01    7.563692e+03
  4.013031e+01    7.130017e+03
  4.022185e+01    7.053395e+03
  4.031339e+01    7.024754e+03
  4.040493e+01    7.003497e+03
  4.049647e+01    6.994167e+03
  4.058801e+01    6.975664e+03
  4.067955e+01    6.971540e+03
  4.077110e+01    6.986673e+03
  4.086264e+01    7.025748e+03
  4.095418e+01    7.177471e+03
  4.104572e+01    8.347928e+03
  4.113726e+01    1.362073e+04
  4.122880e+01    9.201104e+03
  4.132034e+01    7.259658e+03
  4.141189e+01    7.027243e+03
  4.150343e+01    6.970170e+03
  4.159497e+01    6.932811e+03
  4.168651e+01    6.909700e+03
  4.177805e+01    6.880139e+03
  4.186959e+01    6.872413e+03
  4.196113e+01    6.873868e+03
  4.205268e+01    6.902767e+03
  4.214422e+01    7.049052e+03
  4.223576e+01    8.159459e+03
  4.232730e+01    7.532020e+03
  4.241884e+01    6.907989e+03
  4.251038e+01    6.834352e+03
  4.260192e+01    6.809378e+03
  4.269347e+01    6.795299e+03
  4.278501e+01    6.779761e+03
  4.287655e+01    6.791223e+03
  4.296809e+01    6.816387e+03
  4.305963e+01    6.876091e+03
  4.315117e+01    6.994797e+03
  4.324272e+01    7.763543e+03
  4.333426e+01    1.221788e+04
  4.342580e+01    9.329179e+03
  4.351734e+01    7.345380e+03
  4.360888e+01    7.416746e+03
  4.370042e+01    9.012640e+03
  4.379196e+01    2.171284e+04
  4.388351e+01    2.013195e+04
  4.397505e+01    9.525413e+03
  4.406659e+01    7.658009e+03
  4.415813e+01    7.470250e+03
  4.424967e+01    8.126079e+03
  4.434121e+01    1.491084e+04
  4.443275e+01    2.985527e+04
  4.452430e+01    1.192711e+04
  4.461584e+01    7.647775e+03
  4.470738e+01    7.016297e+03
  4.479892e+01    6.821461e+03
  4.489046e+01    6.728738e+03
  4.498200e+01    6.695885e+03
  4.507354e+01    6.681934e+03
  4.516509e+01    6.693474e+03
  4.525663e+01    6.785889e+03
  4.534817e+01    7.448223e+03
  4.543971e+01    1.229704e+04
  4.553125e+01    1.027158e+04
  4.562279e+01    7.024259e+03
  4.571433e+01    6.653546e+03
  4.580588e+01    6.558906e+03
  4.589742e+01    6.507199e+03
  4.598896e+01    6.466697e+03
  4.608050e+01    6.449074e+03
  4.617204e+01    6.446097e+03
  4.626358e+01    6.481087e+03
  4.635513e+01    6.605205e+03
  4.644667e+01    7.731942e+03
  4.653821e+01    8.065596e+03
  4.662975e+01    6.721118e+03
  4.672129e+01    6.537303e+03
  4.681283e+01    6.516918e+03
  4.690437e+01    6.522186e+03
  4.699592e+01    6.572465e+03
  4.708746e+01    6.620454e+03
  4.717900e+01    6.660346e+03
  4.727054e+01    6.761128e+03
  4.736208e+01    6.946895e+03
  4.745362e+01    7.827066e+03
  4.754516e+01    8.332131e+03
  4.763671e+01    7.609920e+03
  4.772825e+01    7.335216e+03
  4.781979e+01    6.958147e+03
  4.788844e+01    2.802012e+03

File: wam39b_rampe_2_xrd_000008_integrated.dat
# == pyFAI calibration ==
# Distance Sample to Detector: 0.261615 m
# PONI: 2.023e-01, 2.348e-01 m
# Rotations: -0.026380 0.002005 0.000000 rad
#
# == Fit2d calibration ==
# Distance Sample-beamCenter: 261.707 mm
# Center: x=6119.331, y=5134.776 pix
# Tilt: 1.516 deg  TiltPlanRot: 4.347 deg
#
# Detector Rayonix SX165	 PixelSize= 3.950e-05, 3.950e-05 m
#    Detector has a mask: True
#    Detector has a dark current: False
#    detector has a flat field: False
#
# Wavelength: 1.12713e-10 m
# Mask applied: from detector
# Dark current applied: False
# Flat field applied: False
# Polarization factor: None
# Normalization factor: 1.0
# --> ROCK\\WAM39B_integrated\wam39b_rampe_2_xrd_000008_integrated.dat
#       2th_deg             I
  2.502596e+01    4.903065e+03
  2.511750e+01    2.013392e+04
  2.520905e+01    2.044542e+04
  2.530059e+01    2.054788e+04
  2.539213e+01    1.997747e+04
  2.548367e+01    1.987858e+04
  2.557521e+01    1.987647e+04
  2.566675e+01    1.996533e+04
  2.575829e+01    1.990014e+04
  2.584984e+01    1.981430e+04
  2.594138e+01    1.977187e+04
  2.603292e+01    1.973184e+04
  2.612446e+01    1.991767e+04
  2.621600e+01    2.153571e+04
  2.630754e+01    3.074670e+04
  2.639908e+01    5.423657e+04
  2.649063e+01    4.201936e+04
  2.658217e+01    2.274471e+04
  2.667371e+01    1.910097e+04
  2.676525e+01    1.808742e+04
  2.685679e+01    1.762367e+04
  2.694833e+01    1.729469e+04
  2.703988e+01    1.704492e+04
  2.713142e+01    1.684783e+04
  2.722296e+01    1.662105e+04
  2.731450e+01    1.644547e+04
  2.740604e+01    1.625813e+04
  2.749758e+01    1.613298e+04
  2.758912e+01    1.605230e+04
  2.768067e+01    1.597760e+04
  2.777221e+01    1.596108e+04
  2.786375e+01    1.638927e+04
  2.795529e+01    1.941992e+04
  2.804683e+01    1.948214e+04
  2.813837e+01    1.600563e+04
  2.822991e+01    1.524629e+04
  2.832146e+01    1.493512e+04
  2.841300e+01    1.465918e+04
  2.850454e+01    1.443104e+04
  2.859608e+01    1.425628e+04
  2.868762e+01    1.406384e+04
  2.877916e+01    1.390476e+04
  2.887070e+01    1.380123e+04
  2.896225e+01    1.366566e+04
  2.905379e+01    1.346078e+04
  2.914533e+01    1.321702e+04
  2.923687e+01    1.300101e+04
  2.932841e+01    1.280802e+04
  2.941995e+01    1.276268e+04
  2.951149e+01    1.385874e+04
  2.960304e+01    1.351375e+04
  2.969458e+01    1.218756e+04
  2.978612e+01    1.189599e+04
  2.987766e+01    1.173261e+04
  2.996920e+01    1.166112e+04
  3.006074e+01    1.163938e+04
  3.015228e+01    1.166109e+04
  3.024383e+01    1.172501e+04
  3.033537e+01    1.203402e+04
  3.042691e+01    1.318723e+04
  3.051845e+01    2.022904e+04
  3.060999e+01    5.409040e+04
  3.070153e+01    3.522595e+04
  3.079308e+01    1.639663e+04
  3.088462e+01    1.397554e+04
  3.097616e+01    2.278712e+04
  3.106770e+01    2.677986e+04
  3.115924e+01    1.329671e+04
  3.125078e+01    1.118346e+04
  3.134232e+01    1.072309e+04
  3.143387e+01    1.051589e+04
  3.152541e+01    1.037065e+04
  3.161695e+01    1.024805e+04
  3.170849e+01    1.016619e+04
  3.180003e+01    1.006864e+04
  3.189157e+01    1.000403e+04
  3.198311e+01    9.944423e+03
  3.207466e+01    9.879422e+03
  3.216620e+01    9.822245e+03
  3.225774e+01    9.821496e+03
  3.234928e+01    1.009749e+04
  3.244082e+01    1.147691e+04
  3.253236e+01    1.029204e+04
  3.262390e+01    9.750211e+03
  3.271545e+01    9.663393e+03
  3.280699e+01    9.547075e+03
  3.289853e+01    9.408975e+03
  3.299007e+01    9.294271e+03
  3.308161e+01    9.227730e+03
  3.317315e+01    9.165271e+03
  3.326469e+01    9.111387e+03
  3.335624e+01    9.095897e+03
  3.344778e+01    9.082136e+03
  3.353932e+01    9.152711e+03
  3.363086e+01    9.494271e+03
  3.372240e+01    1.263514e+04
  3.381394e+01    2.333215e+04
  3.390549e+01    1.272753e+04
  3.399703e+01    9.337815e+03
  3.408857e+01    8.872418e+03
  3.418011e+01    8.704593e+03
  3.427165e+01    8.630654e+03
  3.436319e+01    8.585788e+03
  3.445473e+01    8.525572e+03
  3.454628e+01    8.482264e+03
  3.463782e+01    8.425427e+03
  3.472936e+01    8.371826e+03
  3.482090e+01    8.309940e+03
  3.491244e+01    8.250213e+03
  3.500398e+01    8.187259e+03
  3.509552e+01    8.128941e+03
  3.518707e+01    8.089529e+03
  3.527861e+01    8.066422e+03
  3.537015e+01    7.999155e+03
  3.546169e+01    7.954285e+03
  3.555323e+01    7.911188e+03
  3.564477e+01    7.867877e+03
  3.573631e+01    7.853399e+03
  3.582786e+01    7.830116e+03
  3.591940e+01    7.836729e+03
  3.601094e+01    7.859233e+03
  3.610248e+01    7.890761e+03
  3.619402e+01    8.002626e+03
  3.628556e+01    8.608047e+03
  3.637710e+01    1.285603e+04
  3.646865e+01    1.071716e+04
  3.656019e+01    8.280854e+03
  3.665173e+01    8.013743e+03
  3.674327e+01    7.983025e+03
  3.683481e+01    7.990822e+03
  3.692635e+01    8.022434e+03
  3.701790e+01    8.086540e+03
  3.710944e+01    8.161734e+03
  3.720098e+01    8.310158e+03
  3.729252e+01    8.558873e+03
  3.738406e+01    9.190770e+03
  3.747560e+01    1.166910e+04
  3.756714e+01    3.531413e+04
  3.765869e+01    7.242685e+04
  3.775023e+01    2.009533e+04
  3.784177e+01    1.038779e+04
  3.793331e+01    8.997117e+03
  3.802485e+01    8.518772e+03
  3.811639e+01    8.332386e+03
  3.820793e+01    8.207312e+03
  3.829948e+01    8.144095e+03
  3.839102e+01    8.107633e+03
  3.848256e+01    8.089915e+03
  3.857410e+01    8.104488e+03
  3.866564e+01    8.163797e+03
  3.875718e+01    8.829923e+03
  3.884872e+01    1.061885e+04
  3.894027e+01    8.631953e+03
  3.903181e+01    8.107727e+03
  3.912335e+01    8.016220e+03
  3.921489e+01    7.971839e+03
  3.930643e+01    7.940545e+03
  3.939797e+01    7.920191e+03
  3.948951e+01    7.899028e+03
  3.958106e+01    7.861525e+03
  3.967260e+01    7.810824e+03
  3.976414e+01    7.775110e+03
  3.985568e+01    7.797000e+03
  3.994722e+01    8.073860e+03
  4.003876e+01    8.307576e+03
  4.013031e+01    7.807473e+03
  4.022185e+01    7.707219e+03
  4.031339e+01    7.671042e+03
  4.040493e+01    7.660366e+03
  4.049647e+01    7.636561e+03
  4.058801e+01    7.608329e+03
  4.067955e+01    7.614680e+03
  4.077110e+01    7.633837e+03
  4.086264e+01    7.675628e+03
  4.095418e+01    7.814638e+03
  4.104572e+01    8.799564e+03
  4.113726e+01    1.458401e+04
  4.122880e+01    1.058908e+04
  4.132034e+01    7.988274e+03
  4.141189e+01    7.697575e+03
  4.150343e+01    7.620776e+03
  4.159497e+01    7.581543e+03
  4.168651e+01    7.569667e+03
  4.177805e+01    7.536835e+03
  4.186959e+01    7.522227e+03
  4.196113e+01    7.524254e+03
  4.205268e+01    7.541768e+03
  4.214422e+01    7.663985e+03
  4.223576e+01    8.765158e+03
  4.232730e+01    8.371082e+03
  4.241884e+01    7.561060e+03
  4.251038e+01    7.458519e+03
  4.260192e+01    7.429704e+03
  4.269347e+01    7.416417e+03
  4.278501e+01    7.410175e+03
  4.287655e+01    7.409056e+03
  4.296809e+01    7.432359e+03
  4.305963e+01    7.495972e+03
  4.315117e+01    7.603057e+03
  4.324272e+01    8.250135e+03
  4.333426e+01    1.288229e+04
  4.342580e+01    1.072011e+04
  4.351734e+01    8.055913e+03
  4.360888e+01    8.046612e+03
  4.370042e+01    9.342279e+03
  4.379196e+01    2.041938e+04
  4.388351e+01    2.380778e+04
  4.397505e+01    1.120669e+04
  4.406659e+01    8.489619e+03
  4.415813e+01    8.168591e+03
  4.424967e+01    8.717223e+03
  4.434121e+01    1.437828e+04
  4.443275e+01    3.309731e+04
  4.452430e+01    1.445485e+04
  4.461584e+01    8.486267e+03
  4.470738e+01    7.686130e+03
  4.479892e+01    7.464974e+03
  4.489046e+01    7.356056e+03
  4.498200e+01    7.310949e+03
  4.507354e+01    7.296962e+03
  4.516509e+01    7.304110e+03
  4.525663e+01    7.387616e+03
  4.534817e+01    7.936603e+03
  4.543971e+01    1.265827e+04
  4.553125e+01    1.195401e+04
  4.562279e+01    7.781293e+03
  4.571433e+01    7.274083e+03
  4.580588e+01    7.170188e+03
  4.589742e+01    7.120996e+03
  4.598896e+01    7.082626e+03
  4.608050e+01    7.050072e+03
  4.617204e+01    7.039407e+03
  4.626358e+01    7.076532e+03
  4.635513e+01    7.191613e+03
  4.644667e+01    8.202595e+03
  4.653821e+01    9.026130e+03
  4.662975e+01    7.411244e+03
  4.672129e+01    7.174012e+03
  4.681283e+01    7.144846e+03
  4.690437e+01    7.145275e+03
  4.699592e+01    7.172588e+03
  4.708746e+01    7.240576e+03
  4.717900e+01    7.290665e+03
  4.727054e+01    7.390489e+03
  4.736208e+01    7.551837e+03
  4.745362e+01    8.375830e+03
  4.754516e+01    9.233012e+03
  4.763671e+01    8.363520e+03
  4.772825e+01    8.019886e+03
  4.781979e+01    7.590513e+03
  4.788844e+01    3.059310e+03