Folder: heo-xas-xrd/Output/ROCK_XRD/WAM39B_integrated/rampe1 (part 7)

File: wam39b_rampe_1_xrd_000018_integrated.dat
# == pyFAI calibration ==
# Distance Sample to Detector: 0.261615 m
# PONI: 2.023e-01, 2.348e-01 m
# Rotations: -0.026380 0.002005 0.000000 rad
#
# == Fit2d calibration ==
# Distance Sample-beamCenter: 261.707 mm
# Center: x=6119.331, y=5134.776 pix
# Tilt: 1.516 deg  TiltPlanRot: 4.347 deg
#
# Detector Rayonix SX165	 PixelSize= 3.950e-05, 3.950e-05 m
#    Detector has a mask: True
#    Detector has a dark current: False
#    detector has a flat field: False
#
# Wavelength: 1.12713e-10 m
# Mask applied: from detector
# Dark current applied: False
# Flat field applied: False
# Polarization factor: None
# Normalization factor: 1.0
# --> ROCK\\WAM39B_integrated\wam39b_rampe_1_xrd_000018_integrated.dat
#       2th_deg             I
  2.502596e+01    4.718190e+03
  2.511750e+01    1.939825e+04
  2.520905e+01    1.973841e+04
  2.530059e+01    1.993817e+04
  2.539213e+01    1.969448e+04
  2.548367e+01    2.024460e+04
  2.557521e+01    2.124250e+04
  2.566675e+01    2.198263e+04
  2.575829e+01    2.208650e+04
  2.584984e+01    2.109382e+04
  2.594138e+01    2.054930e+04
  2.603292e+01    2.087460e+04
  2.612446e+01    2.174177e+04
  2.621600e+01    2.342217e+04
  2.630754e+01    2.849814e+04
  2.639908e+01    3.331455e+04
  2.649063e+01    2.592188e+04
  2.658217e+01    2.361378e+04
  2.667371e+01    2.293684e+04
  2.676525e+01    2.192254e+04
  2.685679e+01    2.050823e+04
  2.694833e+01    1.910814e+04
  2.703988e+01    1.810268e+04
  2.713142e+01    1.742509e+04
  2.722296e+01    1.692936e+04
  2.731450e+01    1.660323e+04
  2.740604e+01    1.636975e+04
  2.749758e+01    1.629101e+04
  2.758912e+01    1.633784e+04
  2.768067e+01    1.656073e+04
  2.777221e+01    1.716321e+04
  2.786375e+01    1.848804e+04
  2.795529e+01    2.120026e+04
  2.804683e+01    2.159708e+04
  2.813837e+01    1.705486e+04
  2.822991e+01    1.536073e+04
  2.832146e+01    1.463923e+04
  2.841300e+01    1.417759e+04
  2.850454e+01    1.386350e+04
  2.859608e+01    1.362710e+04
  2.868762e+01    1.339116e+04
  2.877916e+01    1.318407e+04
  2.887070e+01    1.298427e+04
  2.896225e+01    1.281392e+04
  2.905379e+01    1.261547e+04
  2.914533e+01    1.243515e+04
  2.923687e+01    1.231274e+04
  2.932841e+01    1.221124e+04
  2.941995e+01    1.225911e+04
  2.951149e+01    1.311263e+04
  2.960304e+01    1.336377e+04
  2.969458e+01    1.199018e+04
  2.978612e+01    1.163411e+04
  2.987766e+01    1.149994e+04
  2.996920e+01    1.146525e+04
  3.006074e+01    1.148367e+04
  3.015228e+01    1.155633e+04
  3.024383e+01    1.165714e+04
  3.033537e+01    1.186789e+04
  3.042691e+01    1.223307e+04
  3.051845e+01    1.279845e+04
  3.060999e+01    1.366133e+04
  3.070153e+01    1.491705e+04
  3.079308e+01    1.641704e+04
  3.088462e+01    1.839629e+04
  3.097616e+01    2.578748e+04
  3.106770e+01    3.250129e+04
  3.115924e+01    1.836008e+04
  3.125078e+01    1.376739e+04
  3.134232e+01    1.235170e+04
  3.143387e+01    1.165591e+04
  3.152541e+01    1.123177e+04
  3.161695e+01    1.093208e+04
  3.170849e+01    1.074326e+04
  3.180003e+01    1.055159e+04
  3.189157e+01    1.043029e+04
  3.198311e+01    1.032653e+04
  3.207466e+01    1.022806e+04
  3.216620e+01    1.013075e+04
  3.225774e+01    1.005483e+04
  3.234928e+01    1.022198e+04
  3.244082e+01    1.127840e+04
  3.253236e+01    1.056703e+04
  3.262390e+01    9.701324e+03
  3.271545e+01    9.492332e+03
  3.280699e+01    9.387958e+03
  3.289853e+01    9.310718e+03
  3.299007e+01    9.253615e+03
  3.308161e+01    9.198342e+03
  3.317315e+01    9.172772e+03
  3.326469e+01    9.168025e+03
  3.335624e+01    9.167881e+03
  3.344778e+01    9.182257e+03
  3.353932e+01    9.273514e+03
  3.363086e+01    9.734708e+03
  3.372240e+01    1.241068e+04
  3.381394e+01    2.177738e+04
  3.390549e+01    1.535755e+04
  3.399703e+01    1.012493e+04
  3.408857e+01    9.299415e+03
  3.418011e+01    9.080994e+03
  3.427165e+01    8.978240e+03
  3.436319e+01    8.868382e+03
  3.445473e+01    8.738573e+03
  3.454628e+01    8.639954e+03
  3.463782e+01    8.577179e+03
  3.472936e+01    8.559252e+03
  3.482090e+01    8.580137e+03
  3.491244e+01    8.700073e+03
  3.500398e+01    8.850700e+03
  3.509552e+01    8.852040e+03
  3.518707e+01    8.633370e+03
  3.527861e+01    8.419966e+03
  3.537015e+01    8.275416e+03
  3.546169e+01    8.170375e+03
  3.555323e+01    8.093924e+03
  3.564477e+01    8.036788e+03
  3.573631e+01    8.003396e+03
  3.582786e+01    7.988290e+03
  3.591940e+01    7.990105e+03
  3.601094e+01    8.002982e+03
  3.610248e+01    8.057354e+03
  3.619402e+01    8.199292e+03
  3.628556e+01    8.793298e+03
  3.637710e+01    1.199805e+04
  3.646865e+01    1.190963e+04
  3.656019e+01    8.821667e+03
  3.665173e+01    8.287541e+03
  3.674327e+01    8.191273e+03
  3.683481e+01    8.189820e+03
  3.692635e+01    8.220387e+03
  3.701790e+01    8.298699e+03
  3.710944e+01    8.442767e+03
  3.720098e+01    8.686167e+03
  3.729252e+01    9.067762e+03
  3.738406e+01    9.958655e+03
  3.747560e+01    1.288843e+04
  3.756714e+01    3.090571e+04
  3.765869e+01    7.181634e+04
  3.775023e+01    3.065362e+04
  3.784177e+01    1.293900e+04
  3.793331e+01    1.002513e+04
  3.802485e+01    9.097673e+03
  3.811639e+01    8.735921e+03
  3.820793e+01    8.547979e+03
  3.829948e+01    8.477929e+03
  3.839102e+01    8.404433e+03
  3.848256e+01    8.344968e+03
  3.857410e+01    8.309862e+03
  3.866564e+01    8.352883e+03
  3.875718e+01    8.859221e+03
  3.884872e+01    1.054162e+04
  3.894027e+01    9.205307e+03
  3.903181e+01    8.327771e+03
  3.912335e+01    8.180954e+03
  3.921489e+01    8.133563e+03
  3.930643e+01    8.109248e+03
  3.939797e+01    8.088083e+03
  3.948951e+01    8.067002e+03
  3.958106e+01    8.062817e+03
  3.967260e+01    8.030265e+03
  3.976414e+01    8.008783e+03
  3.985568e+01    8.021670e+03
  3.994722e+01    8.241753e+03
  4.003876e+01    8.614745e+03
  4.013031e+01    8.245712e+03
  4.022185e+01    8.191298e+03
  4.031339e+01    8.303105e+03
  4.040493e+01    8.359648e+03
  4.049647e+01    8.267544e+03
  4.058801e+01    8.113370e+03
  4.067955e+01    7.994183e+03
  4.077110e+01    7.948128e+03
  4.086264e+01    7.979998e+03
  4.095418e+01    8.156282e+03
  4.104572e+01    9.054369e+03
  4.113726e+01    1.355586e+04
  4.122880e+01    1.245875e+04
  4.132034e+01    8.909358e+03
  4.141189e+01    8.329672e+03
  4.150343e+01    8.135365e+03
  4.159497e+01    8.029403e+03
  4.168651e+01    8.001928e+03
  4.177805e+01    7.978890e+03
  4.186959e+01    7.989479e+03
  4.196113e+01    8.026263e+03
  4.205268e+01    8.054559e+03
  4.214422e+01    8.189698e+03
  4.223576e+01    8.953508e+03
  4.232730e+01    9.118955e+03
  4.241884e+01    8.086442e+03
  4.251038e+01    7.836952e+03
  4.260192e+01    7.738374e+03
  4.269347e+01    7.682189e+03
  4.278501e+01    7.648781e+03
  4.287655e+01    7.633984e+03
  4.296809e+01    7.654965e+03
  4.305963e+01    7.708119e+03
  4.315117e+01    7.856494e+03
  4.324272e+01    8.492159e+03
  4.333426e+01    1.193775e+04
  4.342580e+01    1.225135e+04
  4.351734e+01    8.778578e+03
  4.360888e+01    8.294479e+03
  4.370042e+01    8.436412e+03
  4.379196e+01    8.771065e+03
  4.388351e+01    9.059020e+03
  4.397505e+01    9.337750e+03
  4.406659e+01    9.789082e+03
  4.415813e+01    1.037261e+04
  4.424967e+01    1.136975e+04
  4.434121e+01    1.578476e+04
  4.443275e+01    3.224587e+04
  4.452430e+01    2.138102e+04
  4.461584e+01    1.110452e+04
  4.470738e+01    9.204915e+03
  4.479892e+01    8.612964e+03
  4.489046e+01    8.298492e+03
  4.498200e+01    8.098170e+03
  4.507354e+01    7.966699e+03
  4.516509e+01    7.909819e+03
  4.525663e+01    7.992201e+03
  4.534817e+01    8.529212e+03
  4.543971e+01    1.182954e+04
  4.553125e+01    1.373415e+04
  4.562279e+01    9.104193e+03
  4.571433e+01    8.060196e+03
  4.580588e+01    7.858328e+03
  4.589742e+01    7.791423e+03
  4.598896e+01    7.750172e+03
  4.608050e+01    7.711410e+03
  4.617204e+01    7.670499e+03
  4.626358e+01    7.656257e+03
  4.635513e+01    7.720928e+03
  4.644667e+01    8.402034e+03
  4.653821e+01    9.631746e+03
  4.662975e+01    8.233973e+03
  4.672129e+01    7.770054e+03
  4.681283e+01    7.755947e+03
  4.690437e+01    7.761883e+03
  4.699592e+01    7.668650e+03
  4.708746e+01    7.596563e+03
  4.717900e+01    7.547791e+03
  4.727054e+01    7.586113e+03
  4.736208e+01    7.713021e+03
  4.745362e+01    8.321934e+03
  4.754516e+01    9.437196e+03
  4.763671e+01    8.727950e+03
  4.772825e+01    8.260816e+03
  4.781979e+01    7.869112e+03
  4.788844e+01    3.196223e+03

File: wam39b_rampe_1_xrd_000019_integrated.dat
# == pyFAI calibration ==
# Distance Sample to Detector: 0.261615 m
# PONI: 2.023e-01, 2.348e-01 m
# Rotations: -0.026380 0.002005 0.000000 rad
#
# == Fit2d calibration ==
# Distance Sample-beamCenter: 261.707 mm
# Center: x=6119.331, y=5134.776 pix
# Tilt: 1.516 deg  TiltPlanRot: 4.347 deg
#
# Detector Rayonix SX165	 PixelSize= 3.950e-05, 3.950e-05 m
#    Detector has a mask: True
#    Detector has a dark current: False
#    detector has a flat field: False
#
# Wavelength: 1.12713e-10 m
# Mask applied: from detector
# Dark current applied: False
# Flat field applied: False
# Polarization factor: None
# Normalization factor: 1.0
# --> ROCK\\WAM39B_integrated\wam39b_rampe_1_xrd_000019_integrated.dat
#       2th_deg             I
  2.502596e+01    5.272832e+03
  2.511750e+01    2.162058e+04
  2.520905e+01    2.198569e+04
  2.530059e+01    2.218699e+04
  2.539213e+01    2.184318e+04
  2.548367e+01    2.241075e+04
  2.557521e+01    2.350050e+04
  2.566675e+01    2.434613e+04
  2.575829e+01    2.458208e+04
  2.584984e+01    2.342918e+04
  2.594138e+01    2.274764e+04
  2.603292e+01    2.308108e+04
  2.612446e+01    2.402748e+04
  2.621600e+01    2.593425e+04
  2.630754e+01    3.139718e+04
  2.639908e+01    3.748757e+04
  2.649063e+01    2.954196e+04
  2.658217e+01    2.692642e+04
  2.667371e+01    2.609946e+04
  2.676525e+01    2.477565e+04
  2.685679e+01    2.296273e+04
  2.694833e+01    2.127181e+04
  2.703988e+01    2.009309e+04
  2.713142e+01    1.933790e+04
  2.722296e+01    1.879545e+04
  2.731450e+01    1.842742e+04
  2.740604e+01    1.819082e+04
  2.749758e+01    1.811644e+04
  2.758912e+01    1.816675e+04
  2.768067e+01    1.840619e+04
  2.777221e+01    1.908054e+04
  2.786375e+01    2.060769e+04
  2.795529e+01    2.355889e+04
  2.804683e+01    2.425992e+04
  2.813837e+01    1.906492e+04
  2.822991e+01    1.709796e+04
  2.832146e+01    1.628055e+04
  2.841300e+01    1.578300e+04
  2.850454e+01    1.545159e+04
  2.859608e+01    1.520521e+04
  2.868762e+01    1.493874e+04
  2.877916e+01    1.471115e+04
  2.887070e+01    1.450709e+04
  2.896225e+01    1.440294e+04
  2.905379e+01    1.408595e+04
  2.914533e+01    1.387498e+04
  2.923687e+01    1.374361e+04
  2.932841e+01    1.362270e+04
  2.941995e+01    1.365521e+04
  2.951149e+01    1.453127e+04
  2.960304e+01    1.494200e+04
  2.969458e+01    1.340419e+04
  2.978612e+01    1.295483e+04
  2.987766e+01    1.280154e+04
  2.996920e+01    1.274965e+04
  3.006074e+01    1.275828e+04
  3.015228e+01    1.281243e+04
  3.024383e+01    1.291276e+04
  3.033537e+01    1.315504e+04
  3.042691e+01    1.357519e+04
  3.051845e+01    1.423795e+04
  3.060999e+01    1.532038e+04
  3.070153e+01    1.687199e+04
  3.079308e+01    1.868244e+04
  3.088462e+01    2.080603e+04
  3.097616e+01    2.817984e+04
  3.106770e+01    3.646897e+04
  3.115924e+01    2.074985e+04
  3.125078e+01    1.526166e+04
  3.134232e+01    1.362159e+04
  3.143387e+01    1.286360e+04
  3.152541e+01    1.239799e+04
  3.161695e+01    1.208242e+04
  3.170849e+01    1.188787e+04
  3.180003e+01    1.172009e+04
  3.189157e+01    1.161350e+04
  3.198311e+01    1.152363e+04
  3.207466e+01    1.142506e+04
  3.216620e+01    1.133566e+04
  3.225774e+01    1.124913e+04
  3.234928e+01    1.139311e+04
  3.244082e+01    1.252035e+04
  3.253236e+01    1.186486e+04
  3.262390e+01    1.084209e+04
  3.271545e+01    1.058906e+04
  3.280699e+01    1.046634e+04
  3.289853e+01    1.038648e+04
  3.299007e+01    1.030312e+04
  3.308161e+01    1.025106e+04
  3.317315e+01    1.022359e+04
  3.326469e+01    1.020477e+04
  3.335624e+01    1.021041e+04
  3.344778e+01    1.022355e+04
  3.353932e+01    1.032393e+04
  3.363086e+01    1.078690e+04
  3.372240e+01    1.364242e+04
  3.381394e+01    2.373333e+04
  3.390549e+01    1.760279e+04
  3.399703e+01    1.135747e+04
  3.408857e+01    1.036295e+04
  3.418011e+01    1.011094e+04
  3.427165e+01    9.987607e+03
  3.436319e+01    9.861517e+03
  3.445473e+01    9.717007e+03
  3.454628e+01    9.611083e+03
  3.463782e+01    9.529865e+03
  3.472936e+01    9.511495e+03
  3.482090e+01    9.542379e+03
  3.491244e+01    9.671131e+03
  3.500398e+01    9.884043e+03
  3.509552e+01    9.898362e+03
  3.518707e+01    9.626991e+03
  3.527861e+01    9.367569e+03
  3.537015e+01    9.203664e+03
  3.546169e+01    9.090528e+03
  3.555323e+01    9.008493e+03
  3.564477e+01    8.941475e+03
  3.573631e+01    8.905166e+03
  3.582786e+01    8.886556e+03
  3.591940e+01    8.881953e+03
  3.601094e+01    8.906174e+03
  3.610248e+01    8.956708e+03
  3.619402e+01    9.107736e+03
  3.628556e+01    9.699571e+03
  3.637710e+01    1.301363e+04
  3.646865e+01    1.346443e+04
  3.656019e+01    9.902057e+03
  3.665173e+01    9.235335e+03
  3.674327e+01    9.134364e+03
  3.683481e+01    9.118825e+03
  3.692635e+01    9.154279e+03
  3.701790e+01    9.228621e+03
  3.710944e+01    9.374647e+03
  3.720098e+01    9.653795e+03
  3.729252e+01    1.004790e+04
  3.738406e+01    1.097307e+04
  3.747560e+01    1.393021e+04
  3.756714e+01    3.156485e+04
  3.765869e+01    7.867885e+04
  3.775023e+01    3.651055e+04
  3.784177e+01    1.475315e+04
  3.793331e+01    1.121733e+04
  3.802485e+01    1.015844e+04
  3.811639e+01    9.738276e+03
  3.820793e+01    9.517904e+03
  3.829948e+01    9.437190e+03
  3.839102e+01    9.370895e+03
  3.848256e+01    9.310259e+03
  3.857410e+01    9.259391e+03
  3.866564e+01    9.287961e+03
  3.875718e+01    9.772031e+03
  3.884872e+01    1.161991e+04
  3.894027e+01    1.035727e+04
  3.903181e+01    9.275817e+03
  3.912335e+01    9.112198e+03
  3.921489e+01    9.055648e+03
  3.930643e+01    9.036084e+03
  3.939797e+01    9.030726e+03
  3.948951e+01    9.009632e+03
  3.958106e+01    8.997405e+03
  3.967260e+01    8.979079e+03
  3.976414e+01    8.935544e+03
  3.985568e+01    8.952219e+03
  3.994722e+01    9.143259e+03
  4.003876e+01    9.563097e+03
  4.013031e+01    9.168062e+03
  4.022185e+01    9.074363e+03
  4.031339e+01    9.199476e+03
  4.040493e+01    9.267802e+03
  4.049647e+01    9.179685e+03
  4.058801e+01    8.997660e+03
  4.067955e+01    8.870986e+03
  4.077110e+01    8.823282e+03
  4.086264e+01    8.847740e+03
  4.095418e+01    9.025317e+03
  4.104572e+01    9.901171e+03
  4.113726e+01    1.459291e+04
  4.122880e+01    1.419770e+04
  4.132034e+01    9.990401e+03
  4.141189e+01    9.294618e+03
  4.150343e+01    9.031884e+03
  4.159497e+01    8.923074e+03
  4.168651e+01    8.901148e+03
  4.177805e+01    8.897045e+03
  4.186959e+01    8.925860e+03
  4.196113e+01    8.980435e+03
  4.205268e+01    9.044179e+03
  4.214422e+01    9.178483e+03
  4.223576e+01    9.947408e+03
  4.232730e+01    1.026814e+04
  4.241884e+01    9.083574e+03
  4.251038e+01    8.759689e+03
  4.260192e+01    8.635282e+03
  4.269347e+01    8.570905e+03
  4.278501e+01    8.515330e+03
  4.287655e+01    8.488697e+03
  4.296809e+01    8.503640e+03
  4.305963e+01    8.555176e+03
  4.315117e+01    8.706884e+03
  4.324272e+01    9.312328e+03
  4.333426e+01    1.278611e+04
  4.342580e+01    1.385642e+04
  4.351734e+01    9.830203e+03
  4.360888e+01    9.183556e+03
  4.370042e+01    9.321487e+03
  4.379196e+01    9.723146e+03
  4.388351e+01    1.011006e+04
  4.397505e+01    1.044832e+04
  4.406659e+01    1.099408e+04
  4.415813e+01    1.166121e+04
  4.424967e+01    1.265141e+04
  4.434121e+01    1.679373e+04
  4.443275e+01    3.449256e+04
  4.452430e+01    2.505490e+04
  4.461584e+01    1.248616e+04
  4.470738e+01    1.019433e+04
  4.479892e+01    9.515952e+03
  4.489046e+01    9.160634e+03
  4.498200e+01    8.942289e+03
  4.507354e+01    8.790254e+03
  4.516509e+01    8.724347e+03
  4.525663e+01    8.798916e+03
  4.534817e+01    9.335025e+03
  4.543971e+01    1.258855e+04
  4.553125e+01    1.544421e+04
  4.562279e+01    1.030780e+04
  4.571433e+01    9.013457e+03
  4.580588e+01    8.783324e+03
  4.589742e+01    8.726091e+03
  4.598896e+01    8.702687e+03
  4.608050e+01    8.669253e+03
  4.617204e+01    8.610296e+03
  4.626358e+01    8.578497e+03
  4.635513e+01    8.609503e+03
  4.644667e+01    9.236039e+03
  4.653821e+01    1.071155e+04
  4.662975e+01    9.277948e+03
  4.672129e+01    8.670865e+03
  4.681283e+01    8.648075e+03
  4.690437e+01    8.629951e+03
  4.699592e+01    8.519031e+03
  4.708746e+01    8.431077e+03
  4.717900e+01    8.372198e+03
  4.727054e+01    8.402318e+03
  4.736208e+01    8.544934e+03
  4.745362e+01    9.142044e+03
  4.754516e+01    1.046401e+04
  4.763671e+01    9.734735e+03
  4.772825e+01    9.164150e+03
  4.781979e+01    8.754523e+03
  4.788844e+01    3.529479e+03

File: wam39b_rampe_1_xrd_000020_integrated.dat
# == pyFAI calibration ==
# Distance Sample to Detector: 0.261615 m
# PONI: 2.023e-01, 2.348e-01 m
# Rotations: -0.026380 0.002005 0.000000 rad
#
# == Fit2d calibration ==
# Distance Sample-beamCenter: 261.707 mm
# Center: x=6119.331, y=5134.776 pix
# Tilt: 1.516 deg  TiltPlanRot: 4.347 deg
#
# Detector Rayonix SX165	 PixelSize= 3.950e-05, 3.950e-05 m
#    Detector has a mask: True
#    Detector has a dark current: False
#    detector has a flat field: False
#
# Wavelength: 1.12713e-10 m
# Mask applied: from detector
# Dark current applied: False
# Flat field applied: False
# Polarization factor: None
# Normalization factor: 1.0
# --> ROCK\\WAM39B_integrated\wam39b_rampe_1_xrd_000020_integrated.dat
#       2th_deg             I
  2.502596e+01    4.727907e+03
  2.511750e+01    1.939888e+04
  2.520905e+01    1.975213e+04
  2.530059e+01    1.993113e+04
  2.539213e+01    1.970234e+04
  2.548367e+01    2.028898e+04
  2.557521e+01    2.133191e+04
  2.566675e+01    2.203495e+04
  2.575829e+01    2.206688e+04
  2.584984e+01    2.080601e+04
  2.594138e+01    2.031752e+04
  2.603292e+01    2.077294e+04
  2.612446e+01    2.181678e+04
  2.621600e+01    2.401732e+04
  2.630754e+01    3.054836e+04
  2.639908e+01    3.307619e+04
  2.649063e+01    2.660550e+04
  2.658217e+01    2.512692e+04
  2.667371e+01    2.410470e+04
  2.676525e+01    2.230909e+04
  2.685679e+01    2.031393e+04
  2.694833e+01    1.877178e+04
  2.703988e+01    1.779213e+04
  2.713142e+01    1.719706e+04
  2.722296e+01    1.675535e+04
  2.731450e+01    1.649220e+04
  2.740604e+01    1.630208e+04
  2.749758e+01    1.629048e+04
  2.758912e+01    1.638911e+04
  2.768067e+01    1.669974e+04
  2.777221e+01    1.750755e+04
  2.786375e+01    1.929095e+04
  2.795529e+01    2.233190e+04
  2.804683e+01    2.079420e+04
  2.813837e+01    1.655449e+04
  2.822991e+01    1.516989e+04
  2.832146e+01    1.455877e+04
  2.841300e+01    1.416516e+04
  2.850454e+01    1.389473e+04
  2.859608e+01    1.367487e+04
  2.868762e+01    1.344388e+04
  2.877916e+01    1.325925e+04
  2.887070e+01    1.307281e+04
  2.896225e+01    1.287338e+04
  2.905379e+01    1.269251e+04
  2.914533e+01    1.252856e+04
  2.923687e+01    1.241169e+04
  2.932841e+01    1.231154e+04
  2.941995e+01    1.244354e+04
  2.951149e+01    1.350979e+04
  2.960304e+01    1.310943e+04
  2.969458e+01    1.194995e+04
  2.978612e+01    1.166374e+04
  2.987766e+01    1.154448e+04
  2.996920e+01    1.149595e+04
  3.006074e+01    1.149289e+04
  3.015228e+01    1.155601e+04
  3.024383e+01    1.164486e+04
  3.033537e+01    1.188431e+04
  3.042691e+01    1.235142e+04
  3.051845e+01    1.313176e+04
  3.060999e+01    1.448725e+04
  3.070153e+01    1.636008e+04
  3.079308e+01    1.827902e+04
  3.088462e+01    2.050815e+04
  3.097616e+01    2.947101e+04
  3.106770e+01    2.951989e+04
  3.115924e+01    1.640144e+04
  3.125078e+01    1.301657e+04
  3.134232e+01    1.188069e+04
  3.143387e+01    1.130497e+04
  3.152541e+01    1.095584e+04
  3.161695e+01    1.074126e+04
  3.170849e+01    1.061244e+04
  3.180003e+01    1.050911e+04
  3.189157e+01    1.045738e+04
  3.198311e+01    1.041028e+04
  3.207466e+01    1.036362e+04
  3.216620e+01    1.028967e+04
  3.225774e+01    1.022243e+04
  3.234928e+01    1.051736e+04
  3.244082e+01    1.148291e+04
  3.253236e+01    1.035142e+04
  3.262390e+01    9.724497e+03
  3.271545e+01    9.542405e+03
  3.280699e+01    9.440363e+03
  3.289853e+01    9.367293e+03
  3.299007e+01    9.295906e+03
  3.308161e+01    9.250359e+03
  3.317315e+01    9.230700e+03
  3.326469e+01    9.224973e+03
  3.335624e+01    9.227796e+03
  3.344778e+01    9.255998e+03
  3.353932e+01    9.395641e+03
  3.363086e+01    1.005484e+04
  3.372240e+01    1.420173e+04
  3.381394e+01    2.218652e+04
  3.390549e+01    1.323559e+04
  3.399703e+01    9.821867e+03
  3.408857e+01    9.240263e+03
  3.418011e+01    9.071537e+03
  3.427165e+01    8.985249e+03
  3.436319e+01    8.867769e+03
  3.445473e+01    8.729808e+03
  3.454628e+01    8.641961e+03
  3.463782e+01    8.581857e+03
  3.472936e+01    8.577833e+03
  3.482090e+01    8.636812e+03
  3.491244e+01    8.816624e+03
  3.500398e+01    9.013770e+03
  3.509552e+01    8.913811e+03
  3.518707e+01    8.614983e+03
  3.527861e+01    8.401283e+03
  3.537015e+01    8.270043e+03
  3.546169e+01    8.182942e+03
  3.555323e+01    8.110756e+03
  3.564477e+01    8.062362e+03
  3.573631e+01    8.037736e+03
  3.582786e+01    8.018128e+03
  3.591940e+01    8.025964e+03
  3.601094e+01    8.052318e+03
  3.610248e+01    8.120622e+03
  3.619402e+01    8.311971e+03
  3.628556e+01    9.285018e+03
  3.637710e+01    1.292828e+04
  3.646865e+01    1.079436e+04
  3.656019e+01    8.632929e+03
  3.665173e+01    8.297171e+03
  3.674327e+01    8.241546e+03
  3.683481e+01    8.239704e+03
  3.692635e+01    8.287871e+03
  3.701790e+01    8.369956e+03
  3.710944e+01    8.540156e+03
  3.720098e+01    8.807538e+03
  3.729252e+01    9.271891e+03
  3.738406e+01    1.043981e+04
  3.747560e+01    1.498327e+04
  3.756714e+01    4.331700e+04
  3.765869e+01    6.631002e+04
  3.775023e+01    2.235404e+04
  3.784177e+01    1.176995e+04
  3.793331e+01    9.734062e+03
  3.802485e+01    9.002549e+03
  3.811639e+01    8.713349e+03
  3.820793e+01    8.565192e+03
  3.829948e+01    8.532947e+03
  3.839102e+01    8.474614e+03
  3.848256e+01    8.402423e+03
  3.857410e+01    8.368501e+03
  3.866564e+01    8.450451e+03
  3.875718e+01    9.313424e+03
  3.884872e+01    1.053889e+04
  3.894027e+01    8.838658e+03
  3.903181e+01    8.307038e+03
  3.912335e+01    8.213773e+03
  3.921489e+01    8.184697e+03
  3.930643e+01    8.176546e+03
  3.939797e+01    8.177167e+03
  3.948951e+01    8.173839e+03
  3.958106e+01    8.183526e+03
  3.967260e+01    8.139809e+03
  3.976414e+01    8.115572e+03
  3.985568e+01    8.132172e+03
  3.994722e+01    8.442595e+03
  4.003876e+01    8.558614e+03
  4.013031e+01    8.197090e+03
  4.022185e+01    8.208154e+03
  4.031339e+01    8.313263e+03
  4.040493e+01    8.327311e+03
  4.049647e+01    8.210414e+03
  4.058801e+01    8.059634e+03
  4.067955e+01    7.962293e+03
  4.077110e+01    7.940420e+03
  4.086264e+01    8.005832e+03
  4.095418e+01    8.292405e+03
  4.104572e+01    9.876749e+03
  4.113726e+01    1.453461e+04
  4.122880e+01    1.089965e+04
  4.132034e+01    8.695020e+03
  4.141189e+01    8.291035e+03
  4.150343e+01    8.098828e+03
  4.159497e+01    8.030122e+03
  4.168651e+01    8.037536e+03
  4.177805e+01    8.068618e+03
  4.186959e+01    8.136825e+03
  4.196113e+01    8.224663e+03
  4.205268e+01    8.326589e+03
  4.214422e+01    8.577652e+03
  4.223576e+01    9.518937e+03
  4.232730e+01    8.930566e+03
  4.241884e+01    8.131864e+03
  4.251038e+01    7.923271e+03
  4.260192e+01    7.807692e+03
  4.269347e+01    7.738165e+03
  4.278501e+01    7.692792e+03
  4.287655e+01    7.682598e+03
  4.296809e+01    7.710095e+03
  4.305963e+01    7.765199e+03
  4.315117e+01    7.979572e+03
  4.324272e+01    9.087054e+03
  4.333426e+01    1.311143e+04
  4.342580e+01    1.074240e+04
  4.351734e+01    8.472826e+03
  4.360888e+01    8.265241e+03
  4.370042e+01    8.543476e+03
  4.379196e+01    8.977510e+03
  4.388351e+01    9.371578e+03
  4.397505e+01    9.879077e+03
  4.406659e+01    1.053454e+04
  4.415813e+01    1.118247e+04
  4.424967e+01    1.242633e+04
  4.434121e+01    2.009163e+04
  4.443275e+01    3.247077e+04
  4.452430e+01    1.588050e+04
  4.461584e+01    9.990804e+03
  4.470738e+01    8.788000e+03
  4.479892e+01    8.362037e+03
  4.489046e+01    8.099969e+03
  4.498200e+01    7.950606e+03
  4.507354e+01    7.848790e+03
  4.516509e+01    7.838845e+03
  4.525663e+01    8.001161e+03
  4.534817e+01    9.007657e+03
  4.543971e+01    1.352274e+04
  4.553125e+01    1.193795e+04
  4.562279e+01    8.561240e+03
  4.571433e+01    8.042111e+03
  4.580588e+01    7.968703e+03
  4.589742e+01    7.962685e+03
  4.598896e+01    7.985314e+03
  4.608050e+01    7.947644e+03
  4.617204e+01    7.904536e+03
  4.626358e+01    7.856502e+03
  4.635513e+01    7.943699e+03
  4.644667e+01    9.053535e+03
  4.653821e+01    9.349973e+03
  4.662975e+01    8.044336e+03
  4.672129e+01    7.818236e+03
  4.681283e+01    7.854034e+03
  4.690437e+01    7.760285e+03
  4.699592e+01    7.618932e+03
  4.708746e+01    7.554014e+03
  4.717900e+01    7.532291e+03
  4.727054e+01    7.588836e+03
  4.736208e+01    7.798312e+03
  4.745362e+01    8.713764e+03
  4.754516e+01    9.199853e+03
  4.763671e+01    8.553037e+03
  4.772825e+01    8.263594e+03
  4.781979e+01    7.912074e+03
  4.788844e+01    3.223855e+03