Folder: heo-xas-xrd/Output/ROCK_XRD/WAM39B_integrated/rampe1 (part 9)

File: wam39b_rampe_1_xrd_000024_integrated.dat
# == pyFAI calibration ==
# Distance Sample to Detector: 0.261615 m
# PONI: 2.023e-01, 2.348e-01 m
# Rotations: -0.026380 0.002005 0.000000 rad
#
# == Fit2d calibration ==
# Distance Sample-beamCenter: 261.707 mm
# Center: x=6119.331, y=5134.776 pix
# Tilt: 1.516 deg  TiltPlanRot: 4.347 deg
#
# Detector Rayonix SX165	 PixelSize= 3.950e-05, 3.950e-05 m
#    Detector has a mask: True
#    Detector has a dark current: False
#    detector has a flat field: False
#
# Wavelength: 1.12713e-10 m
# Mask applied: from detector
# Dark current applied: False
# Flat field applied: False
# Polarization factor: None
# Normalization factor: 1.0
# --> ROCK\\WAM39B_integrated\wam39b_rampe_1_xrd_000024_integrated.dat
#       2th_deg             I
  2.502596e+01    4.551372e+03
  2.511750e+01    1.864299e+04
  2.520905e+01    1.891359e+04
  2.530059e+01    1.905078e+04
  2.539213e+01    1.867794e+04
  2.548367e+01    1.906609e+04
  2.557521e+01    1.991156e+04
  2.566675e+01    2.047486e+04
  2.575829e+01    2.046698e+04
  2.584984e+01    1.888552e+04
  2.594138e+01    1.849738e+04
  2.603292e+01    1.891692e+04
  2.612446e+01    2.015927e+04
  2.621600e+01    2.356713e+04
  2.630754e+01    3.347120e+04
  2.639908e+01    3.749107e+04
  2.649063e+01    3.306870e+04
  2.658217e+01    2.438612e+04
  2.667371e+01    1.990231e+04
  2.676525e+01    1.782402e+04
  2.685679e+01    1.688809e+04
  2.694833e+01    1.634409e+04
  2.703988e+01    1.601711e+04
  2.713142e+01    1.576920e+04
  2.722296e+01    1.554777e+04
  2.731450e+01    1.539914e+04
  2.740604e+01    1.523755e+04
  2.749758e+01    1.518134e+04
  2.758912e+01    1.520814e+04
  2.768067e+01    1.541790e+04
  2.777221e+01    1.615560e+04
  2.786375e+01    1.891009e+04
  2.795529e+01    2.240219e+04
  2.804683e+01    1.777632e+04
  2.813837e+01    1.497102e+04
  2.822991e+01    1.418550e+04
  2.832146e+01    1.384059e+04
  2.841300e+01    1.358057e+04
  2.850454e+01    1.337996e+04
  2.859608e+01    1.322194e+04
  2.868762e+01    1.303697e+04
  2.877916e+01    1.284798e+04
  2.887070e+01    1.267278e+04
  2.896225e+01    1.249851e+04
  2.905379e+01    1.232568e+04
  2.914533e+01    1.216472e+04
  2.923687e+01    1.205688e+04
  2.932841e+01    1.199646e+04
  2.941995e+01    1.233210e+04
  2.951149e+01    1.336212e+04
  2.960304e+01    1.218071e+04
  2.969458e+01    1.148451e+04
  2.978612e+01    1.130221e+04
  2.987766e+01    1.120475e+04
  2.996920e+01    1.116989e+04
  3.006074e+01    1.120852e+04
  3.015228e+01    1.131736e+04
  3.024383e+01    1.155411e+04
  3.033537e+01    1.217162e+04
  3.042691e+01    1.395980e+04
  3.051845e+01    1.999196e+04
  3.060999e+01    3.270798e+04
  3.070153e+01    2.935370e+04
  3.079308e+01    1.880971e+04
  3.088462e+01    1.791942e+04
  3.097616e+01    2.811035e+04
  3.106770e+01    1.944408e+04
  3.115924e+01    1.229172e+04
  3.125078e+01    1.089100e+04
  3.134232e+01    1.041429e+04
  3.143387e+01    1.017688e+04
  3.152541e+01    9.997400e+03
  3.161695e+01    9.865146e+03
  3.170849e+01    9.772961e+03
  3.180003e+01    9.698229e+03
  3.189157e+01    9.663269e+03
  3.198311e+01    9.651600e+03
  3.207466e+01    9.708490e+03
  3.216620e+01    9.771660e+03
  3.225774e+01    9.756734e+03
  3.234928e+01    1.033679e+04
  3.244082e+01    1.060357e+04
  3.253236e+01    9.486299e+03
  3.262390e+01    9.176745e+03
  3.271545e+01    9.078765e+03
  3.280699e+01    8.991554e+03
  3.289853e+01    8.946488e+03
  3.299007e+01    8.890848e+03
  3.308161e+01    8.854911e+03
  3.317315e+01    8.834676e+03
  3.326469e+01    8.843544e+03
  3.335624e+01    8.835683e+03
  3.344778e+01    8.871558e+03
  3.353932e+01    9.111986e+03
  3.363086e+01    1.038145e+04
  3.372240e+01    1.753438e+04
  3.381394e+01    1.821658e+04
  3.390549e+01    1.048790e+04
  3.399703e+01    8.971805e+03
  3.408857e+01    8.667014e+03
  3.418011e+01    8.588093e+03
  3.427165e+01    8.468305e+03
  3.436319e+01    8.326960e+03
  3.445473e+01    8.225658e+03
  3.454628e+01    8.180753e+03
  3.463782e+01    8.157396e+03
  3.472936e+01    8.224997e+03
  3.482090e+01    8.446408e+03
  3.491244e+01    8.740115e+03
  3.500398e+01    8.359467e+03
  3.509552e+01    8.028703e+03
  3.518707e+01    7.894045e+03
  3.527861e+01    7.832192e+03
  3.537015e+01    7.788804e+03
  3.546169e+01    7.739539e+03
  3.555323e+01    7.703406e+03
  3.564477e+01    7.671638e+03
  3.573631e+01    7.657676e+03
  3.582786e+01    7.655649e+03
  3.591940e+01    7.660661e+03
  3.601094e+01    7.708989e+03
  3.610248e+01    7.795640e+03
  3.619402e+01    8.133168e+03
  3.628556e+01    1.013354e+04
  3.637710e+01    1.226359e+04
  3.646865e+01    8.908778e+03
  3.656019e+01    8.015449e+03
  3.665173e+01    7.882462e+03
  3.674327e+01    7.875922e+03
  3.683481e+01    7.889614e+03
  3.692635e+01    7.933514e+03
  3.701790e+01    8.039902e+03
  3.710944e+01    8.227347e+03
  3.720098e+01    8.522917e+03
  3.729252e+01    9.118759e+03
  3.738406e+01    1.097035e+04
  3.747560e+01    2.099518e+04
  3.756714e+01    6.206976e+04
  3.765869e+01    4.089629e+04
  3.775023e+01    1.421412e+04
  3.784177e+01    9.924242e+03
  3.793331e+01    8.838807e+03
  3.802485e+01    8.388760e+03
  3.811639e+01    8.184034e+03
  3.820793e+01    8.071968e+03
  3.829948e+01    8.037001e+03
  3.839102e+01    8.106076e+03
  3.848256e+01    8.105547e+03
  3.857410e+01    8.058663e+03
  3.866564e+01    8.281235e+03
  3.875718e+01    9.730910e+03
  3.884872e+01    9.260096e+03
  3.894027e+01    8.072415e+03
  3.903181e+01    7.854590e+03
  3.912335e+01    7.795975e+03
  3.921489e+01    7.761990e+03
  3.930643e+01    7.728758e+03
  3.939797e+01    7.722919e+03
  3.948951e+01    7.717819e+03
  3.958106e+01    7.755510e+03
  3.967260e+01    7.766264e+03
  3.976414e+01    7.712162e+03
  3.985568e+01    7.760307e+03
  3.994722e+01    8.123217e+03
  4.003876e+01    7.806525e+03
  4.013031e+01    7.614835e+03
  4.022185e+01    7.639195e+03
  4.031339e+01    7.752923e+03
  4.040493e+01    7.727385e+03
  4.049647e+01    7.574249e+03
  4.058801e+01    7.497620e+03
  4.067955e+01    7.488637e+03
  4.077110e+01    7.514865e+03
  4.086264e+01    7.637540e+03
  4.095418e+01    8.217593e+03
  4.104572e+01    1.159935e+04
  4.113726e+01    1.264683e+04
  4.122880e+01    8.730589e+03
  4.132034e+01    7.972809e+03
  4.141189e+01    7.610118e+03
  4.150343e+01    7.457051e+03
  4.159497e+01    7.395854e+03
  4.168651e+01    7.394387e+03
  4.177805e+01    7.382491e+03
  4.186959e+01    7.417317e+03
  4.196113e+01    7.512782e+03
  4.205268e+01    7.761078e+03
  4.214422e+01    8.510354e+03
  4.223576e+01    8.997076e+03
  4.232730e+01    7.838248e+03
  4.241884e+01    7.445344e+03
  4.251038e+01    7.336173e+03
  4.260192e+01    7.294336e+03
  4.269347e+01    7.279588e+03
  4.278501e+01    7.287536e+03
  4.287655e+01    7.299697e+03
  4.296809e+01    7.362188e+03
  4.305963e+01    7.472923e+03
  4.315117e+01    7.934224e+03
  4.324272e+01    1.055392e+04
  4.333426e+01    1.212107e+04
  4.342580e+01    8.687927e+03
  4.351734e+01    8.063367e+03
  4.360888e+01    8.497823e+03
  4.370042e+01    1.038339e+04
  4.379196e+01    1.489794e+04
  4.388351e+01    1.690605e+04
  4.397505e+01    1.222861e+04
  4.406659e+01    9.572043e+03
  4.415813e+01    9.179236e+03
  4.424967e+01    1.210901e+04
  4.434121e+01    2.665594e+04
  4.443275e+01    2.132548e+04
  4.452430e+01    1.013162e+04
  4.461584e+01    8.191792e+03
  4.470738e+01    7.729741e+03
  4.479892e+01    7.501140e+03
  4.489046e+01    7.324838e+03
  4.498200e+01    7.259279e+03
  4.507354e+01    7.235966e+03
  4.516509e+01    7.317353e+03
  4.525663e+01    7.722596e+03
  4.534817e+01    1.029226e+04
  4.543971e+01    1.287011e+04
  4.553125e+01    8.653746e+03
  4.562279e+01    7.380228e+03
  4.571433e+01    7.166592e+03
  4.580588e+01    7.124537e+03
  4.589742e+01    7.172257e+03
  4.598896e+01    7.313384e+03
  4.608050e+01    7.458496e+03
  4.617204e+01    7.377465e+03
  4.626358e+01    7.236317e+03
  4.635513e+01    7.672785e+03
  4.644667e+01    8.877269e+03
  4.653821e+01    7.781905e+03
  4.662975e+01    7.417716e+03
  4.672129e+01    7.501745e+03
  4.681283e+01    7.271138e+03
  4.690437e+01    7.081185e+03
  4.699592e+01    7.049285e+03
  4.708746e+01    7.058675e+03
  4.717900e+01    7.103877e+03
  4.727054e+01    7.242282e+03
  4.736208e+01    7.672972e+03
  4.745362e+01    8.640073e+03
  4.754516e+01    8.128780e+03
  4.763671e+01    7.954020e+03
  4.772825e+01    7.780432e+03
  4.781979e+01    7.489333e+03
  4.788844e+01    3.040540e+03

File: wam39b_rampe_1_xrd_000025_integrated.dat
# == pyFAI calibration ==
# Distance Sample to Detector: 0.261615 m
# PONI: 2.023e-01, 2.348e-01 m
# Rotations: -0.026380 0.002005 0.000000 rad
#
# == Fit2d calibration ==
# Distance Sample-beamCenter: 261.707 mm
# Center: x=6119.331, y=5134.776 pix
# Tilt: 1.516 deg  TiltPlanRot: 4.347 deg
#
# Detector Rayonix SX165	 PixelSize= 3.950e-05, 3.950e-05 m
#    Detector has a mask: True
#    Detector has a dark current: False
#    detector has a flat field: False
#
# Wavelength: 1.12713e-10 m
# Mask applied: from detector
# Dark current applied: False
# Flat field applied: False
# Polarization factor: None
# Normalization factor: 1.0
# --> ROCK\\WAM39B_integrated\wam39b_rampe_1_xrd_000025_integrated.dat
#       2th_deg             I
  2.502596e+01    4.063314e+03
  2.511750e+01    1.670731e+04
  2.520905e+01    1.696556e+04
  2.530059e+01    1.707192e+04
  2.539213e+01    1.672410e+04
  2.548367e+01    1.694711e+04
  2.557521e+01    1.745015e+04
  2.566675e+01    1.786941e+04
  2.575829e+01    1.763554e+04
  2.584984e+01    1.657924e+04
  2.594138e+01    1.645889e+04
  2.603292e+01    1.690712e+04
  2.612446e+01    1.825987e+04
  2.621600e+01    2.274181e+04
  2.630754e+01    3.519622e+04
  2.639908e+01    3.913523e+04
  2.649063e+01    2.456148e+04
  2.658217e+01    1.810812e+04
  2.667371e+01    1.606459e+04
  2.676525e+01    1.521576e+04
  2.685679e+01    1.477619e+04
  2.694833e+01    1.447976e+04
  2.703988e+01    1.425593e+04
  2.713142e+01    1.410554e+04
  2.722296e+01    1.390941e+04
  2.731450e+01    1.376189e+04
  2.740604e+01    1.362549e+04
  2.749758e+01    1.354410e+04
  2.758912e+01    1.351734e+04
  2.768067e+01    1.361211e+04
  2.777221e+01    1.417109e+04
  2.786375e+01    1.677712e+04
  2.795529e+01    1.924983e+04
  2.804683e+01    1.487220e+04
  2.813837e+01    1.313318e+04
  2.822991e+01    1.262719e+04
  2.832146e+01    1.237350e+04
  2.841300e+01    1.217229e+04
  2.850454e+01    1.201272e+04
  2.859608e+01    1.186455e+04
  2.868762e+01    1.170125e+04
  2.877916e+01    1.154941e+04
  2.887070e+01    1.138859e+04
  2.896225e+01    1.123238e+04
  2.905379e+01    1.107322e+04
  2.914533e+01    1.093815e+04
  2.923687e+01    1.083753e+04
  2.932841e+01    1.082808e+04
  2.941995e+01    1.131187e+04
  2.951149e+01    1.195244e+04
  2.960304e+01    1.073897e+04
  2.969458e+01    1.028156e+04
  2.978612e+01    1.014872e+04
  2.987766e+01    1.006991e+04
  2.996920e+01    1.006420e+04
  3.006074e+01    1.012008e+04
  3.015228e+01    1.026349e+04
  3.024383e+01    1.061628e+04
  3.033537e+01    1.163084e+04
  3.042691e+01    1.531603e+04
  3.051845e+01    2.994270e+04
  3.060999e+01    3.742746e+04
  3.070153e+01    1.885245e+04
  3.079308e+01    1.375196e+04
  3.088462e+01    1.680953e+04
  3.097616e+01    2.527155e+04
  3.106770e+01    1.454203e+04
  3.115924e+01    1.038893e+04
  3.125078e+01    9.556988e+03
  3.134232e+01    9.225129e+03
  3.143387e+01    9.042835e+03
  3.152541e+01    8.910042e+03
  3.161695e+01    8.801178e+03
  3.170849e+01    8.726193e+03
  3.180003e+01    8.641077e+03
  3.189157e+01    8.582706e+03
  3.198311e+01    8.537805e+03
  3.207466e+01    8.501436e+03
  3.216620e+01    8.489689e+03
  3.225774e+01    8.611711e+03
  3.234928e+01    9.446723e+03
  3.244082e+01    9.154565e+03
  3.253236e+01    8.361435e+03
  3.262390e+01    8.183174e+03
  3.271545e+01    8.113244e+03
  3.280699e+01    8.052387e+03
  3.289853e+01    8.008983e+03
  3.299007e+01    7.963354e+03
  3.308161e+01    7.931588e+03
  3.317315e+01    7.901757e+03
  3.326469e+01    7.916774e+03
  3.335624e+01    7.911479e+03
  3.344778e+01    7.974170e+03
  3.353932e+01    8.280187e+03
  3.363086e+01    1.018183e+04
  3.372240e+01    1.792749e+04
  3.381394e+01    1.372413e+04
  3.390549e+01    8.718872e+03
  3.399703e+01    7.888509e+03
  3.408857e+01    7.682253e+03
  3.418011e+01    7.594387e+03
  3.427165e+01    7.494791e+03
  3.436319e+01    7.405114e+03
  3.445473e+01    7.331767e+03
  3.454628e+01    7.299532e+03
  3.463782e+01    7.298608e+03
  3.472936e+01    7.412919e+03
  3.482090e+01    7.665096e+03
  3.491244e+01    7.470227e+03
  3.500398e+01    7.172642e+03
  3.509552e+01    7.079574e+03
  3.518707e+01    7.023670e+03
  3.527861e+01    6.987868e+03
  3.537015e+01    6.953938e+03
  3.546169e+01    6.918520e+03
  3.555323e+01    6.886254e+03
  3.564477e+01    6.860990e+03
  3.573631e+01    6.855773e+03
  3.582786e+01    6.851829e+03
  3.591940e+01    6.863783e+03
  3.601094e+01    6.900234e+03
  3.610248e+01    7.009894e+03
  3.619402e+01    7.502160e+03
  3.628556e+01    1.011839e+04
  3.637710e+01    1.014248e+04
  3.646865e+01    7.539664e+03
  3.656019e+01    7.107745e+03
  3.665173e+01    7.030414e+03
  3.674327e+01    7.035580e+03
  3.683481e+01    7.059739e+03
  3.692635e+01    7.115403e+03
  3.701790e+01    7.220113e+03
  3.710944e+01    7.406462e+03
  3.720098e+01    7.715959e+03
  3.729252e+01    8.413615e+03
  3.738406e+01    1.092077e+04
  3.747560e+01    2.675809e+04
  3.756714e+01    6.003939e+04
  3.765869e+01    2.481804e+04
  3.775023e+01    1.070548e+04
  3.784177e+01    8.412632e+03
  3.793331e+01    7.749099e+03
  3.802485e+01    7.422386e+03
  3.811639e+01    7.268909e+03
  3.820793e+01    7.176240e+03
  3.829948e+01    7.143396e+03
  3.839102e+01    7.175302e+03
  3.848256e+01    7.242657e+03
  3.857410e+01    7.238703e+03
  3.866564e+01    7.661389e+03
  3.875718e+01    9.000068e+03
  3.884872e+01    7.780480e+03
  3.894027e+01    7.119714e+03
  3.903181e+01    7.006344e+03
  3.912335e+01    6.962864e+03
  3.921489e+01    6.932697e+03
  3.930643e+01    6.899195e+03
  3.939797e+01    6.875286e+03
  3.948951e+01    6.851625e+03
  3.958106e+01    6.831909e+03
  3.967260e+01    6.820594e+03
  3.976414e+01    6.806045e+03
  3.985568e+01    7.000166e+03
  3.994722e+01    7.239185e+03
  4.003876e+01    6.858552e+03
  4.013031e+01    6.764082e+03
  4.022185e+01    6.776010e+03
  4.031339e+01    6.849232e+03
  4.040493e+01    6.774738e+03
  4.049647e+01    6.706909e+03
  4.058801e+01    6.684078e+03
  4.067955e+01    6.693065e+03
  4.077110e+01    6.739147e+03
  4.086264e+01    6.902158e+03
  4.095418e+01    7.856512e+03
  4.104572e+01    1.176335e+04
  4.113726e+01    9.781644e+03
  4.122880e+01    7.346565e+03
  4.132034e+01    6.963244e+03
  4.141189e+01    6.703145e+03
  4.150343e+01    6.616804e+03
  4.159497e+01    6.590400e+03
  4.168651e+01    6.579651e+03
  4.177805e+01    6.553171e+03
  4.186959e+01    6.558259e+03
  4.196113e+01    6.586119e+03
  4.205268e+01    6.755528e+03
  4.214422e+01    7.538442e+03
  4.223576e+01    7.376900e+03
  4.232730e+01    6.671483e+03
  4.241884e+01    6.551546e+03
  4.251038e+01    6.523888e+03
  4.260192e+01    6.509804e+03
  4.269347e+01    6.514740e+03
  4.278501e+01    6.525569e+03
  4.287655e+01    6.548570e+03
  4.296809e+01    6.617409e+03
  4.305963e+01    6.775230e+03
  4.315117e+01    7.523031e+03
  4.324272e+01    1.081460e+04
  4.333426e+01    9.642829e+03
  4.342580e+01    7.475427e+03
  4.351734e+01    7.502133e+03
  4.360888e+01    8.871199e+03
  4.370042e+01    1.490671e+04
  4.379196e+01    1.889532e+04
  4.388351e+01    1.086342e+04
  4.397505e+01    8.176134e+03
  4.406659e+01    7.606501e+03
  4.415813e+01    8.251852e+03
  4.424967e+01    1.389772e+04
  4.434121e+01    2.630060e+04
  4.443275e+01    1.355602e+04
  4.452430e+01    7.958907e+03
  4.461584e+01    7.027569e+03
  4.470738e+01    6.746932e+03
  4.479892e+01    6.585203e+03
  4.489046e+01    6.480021e+03
  4.498200e+01    6.453575e+03
  4.507354e+01    6.466519e+03
  4.516509e+01    6.597171e+03
  4.525663e+01    7.295318e+03
  4.534817e+01    1.088537e+04
  4.543971e+01    1.014287e+04
  4.553125e+01    7.027311e+03
  4.562279e+01    6.443486e+03
  4.571433e+01    6.310716e+03
  4.580588e+01    6.259517e+03
  4.589742e+01    6.240673e+03
  4.598896e+01    6.239765e+03
  4.608050e+01    6.218302e+03
  4.617204e+01    6.215112e+03
  4.626358e+01    6.358735e+03
  4.635513e+01    7.272807e+03
  4.644667e+01    7.677914e+03
  4.653821e+01    6.625182e+03
  4.662975e+01    6.536697e+03
  4.672129e+01    6.459366e+03
  4.681283e+01    6.346493e+03
  4.690437e+01    6.277390e+03
  4.699592e+01    6.260973e+03
  4.708746e+01    6.305174e+03
  4.717900e+01    6.372409e+03
  4.727054e+01    6.523396e+03
  4.736208e+01    7.211510e+03
  4.745362e+01    7.606005e+03
  4.754516e+01    7.050428e+03
  4.763671e+01    7.059026e+03
  4.772825e+01    6.926549e+03
  4.781979e+01    6.668831e+03
  4.788844e+01    2.702703e+03

File: wam39b_rampe_1_xrd_000026_integrated.dat
# == pyFAI calibration ==
# Distance Sample to Detector: 0.261615 m
# PONI: 2.023e-01, 2.348e-01 m
# Rotations: -0.026380 0.002005 0.000000 rad
#
# == Fit2d calibration ==
# Distance Sample-beamCenter: 261.707 mm
# Center: x=6119.331, y=5134.776 pix
# Tilt: 1.516 deg  TiltPlanRot: 4.347 deg
#
# Detector Rayonix SX165	 PixelSize= 3.950e-05, 3.950e-05 m
#    Detector has a mask: True
#    Detector has a dark current: False
#    detector has a flat field: False
#
# Wavelength: 1.12713e-10 m
# Mask applied: from detector
# Dark current applied: False
# Flat field applied: False
# Polarization factor: None
# Normalization factor: 1.0
# --> ROCK\\WAM39B_integrated\wam39b_rampe_1_xrd_000026_integrated.dat
#       2th_deg             I
  2.502596e+01    4.459494e+03
  2.511750e+01    1.832258e+04
  2.520905e+01    1.862040e+04
  2.530059e+01    1.874654e+04
  2.539213e+01    1.827674e+04
  2.548367e+01    1.831100e+04
  2.557521e+01    1.866589e+04
  2.566675e+01    1.883219e+04
  2.575829e+01    1.888222e+04
  2.584984e+01    1.798996e+04
  2.594138e+01    1.788400e+04
  2.603292e+01    1.827960e+04
  2.612446e+01    1.945023e+04
  2.621600e+01    2.388214e+04
  2.630754e+01    3.930886e+04
  2.639908e+01    4.701248e+04
  2.649063e+01    2.627702e+04
  2.658217e+01    1.933868e+04
  2.667371e+01    1.736913e+04
  2.676525e+01    1.660683e+04
  2.685679e+01    1.618051e+04
  2.694833e+01    1.587923e+04
  2.703988e+01    1.564387e+04
  2.713142e+01    1.546033e+04
  2.722296e+01    1.526265e+04
  2.731450e+01    1.510332e+04
  2.740604e+01    1.493598e+04
  2.749758e+01    1.482462e+04
  2.758912e+01    1.474224e+04
  2.768067e+01    1.475824e+04
  2.777221e+01    1.507597e+04
  2.786375e+01    1.687075e+04
  2.795529e+01    2.039988e+04
  2.804683e+01    1.650404e+04
  2.813837e+01    1.439906e+04
  2.822991e+01    1.384543e+04
  2.832146e+01    1.357837e+04
  2.841300e+01    1.334617e+04
  2.850454e+01    1.318633e+04
  2.859608e+01    1.302965e+04
  2.868762e+01    1.283805e+04
  2.877916e+01    1.268309e+04
  2.887070e+01    1.251395e+04
  2.896225e+01    1.232777e+04
  2.905379e+01    1.214961e+04
  2.914533e+01    1.199802e+04
  2.923687e+01    1.189435e+04
  2.932841e+01    1.183725e+04
  2.941995e+01    1.223027e+04
  2.951149e+01    1.314528e+04
  2.960304e+01    1.187745e+04
  2.969458e+01    1.129262e+04
  2.978612e+01    1.112990e+04
  2.987766e+01    1.102558e+04
  2.996920e+01    1.100709e+04
  3.006074e+01    1.106346e+04
  3.015228e+01    1.119879e+04
  3.024383e+01    1.155226e+04
  3.033537e+01    1.262064e+04
  3.042691e+01    1.689843e+04
  3.051845e+01    3.688955e+04
  3.060999e+01    4.309909e+04
  3.070153e+01    1.912294e+04
  3.079308e+01    1.412296e+04
  3.088462e+01    1.648829e+04
  3.097616e+01    2.724706e+04
  3.106770e+01    1.723052e+04
  3.115924e+01    1.151480e+04
  3.125078e+01    1.045779e+04
  3.134232e+01    1.008861e+04
  3.143387e+01    9.897715e+03
  3.152541e+01    9.738090e+03
  3.161695e+01    9.630054e+03
  3.170849e+01    9.541921e+03
  3.180003e+01    9.448357e+03
  3.189157e+01    9.378817e+03
  3.198311e+01    9.321255e+03
  3.207466e+01    9.263816e+03
  3.216620e+01    9.236637e+03
  3.225774e+01    9.329089e+03
  3.234928e+01    1.012192e+04
  3.244082e+01    1.020072e+04
  3.253236e+01    9.202166e+03
  3.262390e+01    8.964751e+03
  3.271545e+01    8.873382e+03
  3.280699e+01    8.805148e+03
  3.289853e+01    8.759397e+03
  3.299007e+01    8.699747e+03
  3.308161e+01    8.653354e+03
  3.317315e+01    8.625486e+03
  3.326469e+01    8.626966e+03
  3.335624e+01    8.623273e+03
  3.344778e+01    8.677626e+03
  3.353932e+01    8.933004e+03
  3.363086e+01    1.037114e+04
  3.372240e+01    1.807212e+04
  3.381394e+01    1.657152e+04
  3.390549e+01    9.804472e+03
  3.399703e+01    8.639368e+03
  3.408857e+01    8.350849e+03
  3.418011e+01    8.240916e+03
  3.427165e+01    8.146711e+03
  3.436319e+01    8.068800e+03
  3.445473e+01    7.998812e+03
  3.454628e+01    7.953549e+03
  3.463782e+01    7.927226e+03
  3.472936e+01    8.030149e+03
  3.482090e+01    8.204275e+03
  3.491244e+01    7.944142e+03
  3.500398e+01    7.759532e+03
  3.509552e+01    7.706285e+03
  3.518707e+01    7.660753e+03
  3.527861e+01    7.614702e+03
  3.537015e+01    7.573930e+03
  3.546169e+01    7.545114e+03
  3.555323e+01    7.511995e+03
  3.564477e+01    7.481232e+03
  3.573631e+01    7.468986e+03
  3.582786e+01    7.465281e+03
  3.591940e+01    7.480270e+03
  3.601094e+01    7.515376e+03
  3.610248e+01    7.605785e+03
  3.619402e+01    7.990297e+03
  3.628556e+01    1.027284e+04
  3.637710e+01    1.164709e+04
  3.646865e+01    8.418278e+03
  3.656019e+01    7.774388e+03
  3.665173e+01    7.644170e+03
  3.674327e+01    7.658765e+03
  3.683481e+01    7.683675e+03
  3.692635e+01    7.731884e+03
  3.701790e+01    7.829936e+03
  3.710944e+01    8.019260e+03
  3.720098e+01    8.307053e+03
  3.729252e+01    8.911289e+03
  3.738406e+01    1.089334e+04
  3.747560e+01    2.269923e+04
  3.756714e+01    6.363935e+04
  3.765869e+01    3.365904e+04
  3.775023e+01    1.253425e+04
  3.784177e+01    9.352248e+03
  3.793331e+01    8.504087e+03
  3.802485e+01    8.117349e+03
  3.811639e+01    7.942563e+03
  3.820793e+01    7.823653e+03
  3.829948e+01    7.771833e+03
  3.839102e+01    7.745671e+03
  3.848256e+01    7.805647e+03
  3.857410e+01    7.875348e+03
  3.866564e+01    8.145740e+03
  3.875718e+01    9.651058e+03
  3.884872e+01    8.783502e+03
  3.894027e+01    7.807292e+03
  3.903181e+01    7.649145e+03
  3.912335e+01    7.598043e+03
  3.921489e+01    7.567969e+03
  3.930643e+01    7.520168e+03
  3.939797e+01    7.503937e+03
  3.948951e+01    7.473245e+03
  3.958106e+01    7.449232e+03
  3.967260e+01    7.430736e+03
  3.976414e+01    7.408668e+03
  3.985568e+01    7.554346e+03
  3.994722e+01    7.898798e+03
  4.003876e+01    7.528309e+03
  4.013031e+01    7.365013e+03
  4.022185e+01    7.326893e+03
  4.031339e+01    7.346026e+03
  4.040493e+01    7.322030e+03
  4.049647e+01    7.280370e+03
  4.058801e+01    7.257507e+03
  4.067955e+01    7.270131e+03
  4.077110e+01    7.312264e+03
  4.086264e+01    7.443495e+03
  4.095418e+01    8.109813e+03
  4.104572e+01    1.187931e+04
  4.113726e+01    1.159882e+04
  4.122880e+01    8.077052e+03
  4.132034e+01    7.546102e+03
  4.141189e+01    7.299687e+03
  4.150343e+01    7.197324e+03
  4.159497e+01    7.172573e+03
  4.168651e+01    7.167615e+03
  4.177805e+01    7.129057e+03
  4.186959e+01    7.131939e+03
  4.196113e+01    7.145902e+03
  4.205268e+01    7.244463e+03
  4.214422e+01    7.902739e+03
  4.223576e+01    8.192249e+03
  4.232730e+01    7.309957e+03
  4.241884e+01    7.135374e+03
  4.251038e+01    7.093500e+03
  4.260192e+01    7.081191e+03
  4.269347e+01    7.092470e+03
  4.278501e+01    7.103129e+03
  4.287655e+01    7.118236e+03
  4.296809e+01    7.176639e+03
  4.305963e+01    7.312646e+03
  4.315117e+01    7.843796e+03
  4.324272e+01    1.086042e+04
  4.333426e+01    1.135405e+04
  4.342580e+01    8.302765e+03
  4.351734e+01    8.150783e+03
  4.360888e+01    9.703948e+03
  4.370042e+01    1.798913e+04
  4.379196e+01    2.135978e+04
  4.388351e+01    1.090766e+04
  4.397505e+01    8.465600e+03
  4.406659e+01    7.995731e+03
  4.415813e+01    8.451786e+03
  4.424967e+01    1.237078e+04
  4.434121e+01    2.750496e+04
  4.443275e+01    1.791604e+04
  4.452430e+01    9.072548e+03
  4.461584e+01    7.689634e+03
  4.470738e+01    7.303729e+03
  4.479892e+01    7.144299e+03
  4.489046e+01    7.037213e+03
  4.498200e+01    7.006573e+03
  4.507354e+01    7.020614e+03
  4.516509e+01    7.102240e+03
  4.525663e+01    7.588267e+03
  4.534817e+01    1.063343e+04
  4.543971e+01    1.203652e+04
  4.553125e+01    7.964941e+03
  4.562279e+01    7.060928e+03
  4.571433e+01    6.878516e+03
  4.580588e+01    6.811351e+03
  4.589742e+01    6.764854e+03
  4.598896e+01    6.740705e+03
  4.608050e+01    6.706582e+03
  4.617204e+01    6.718733e+03
  4.626358e+01    6.821778e+03
  4.635513e+01    7.513570e+03
  4.644667e+01    8.533265e+03
  4.653821e+01    7.310473e+03
  4.662975e+01    6.978688e+03
  4.672129e+01    6.860294e+03
  4.681283e+01    6.878139e+03
  4.690437e+01    6.818929e+03
  4.699592e+01    6.810240e+03
  4.708746e+01    6.861693e+03
  4.717900e+01    6.915323e+03
  4.727054e+01    7.054331e+03
  4.736208e+01    7.587168e+03
  4.745362e+01    8.416490e+03
  4.754516e+01    7.781091e+03
  4.763671e+01    7.715374e+03
  4.772825e+01    7.529408e+03
  4.781979e+01    7.183056e+03
  4.788844e+01    2.913144e+03