Folder: heo-xas-xrd/Output/ROCK_XRD/WAM39B_integrated/rampe1

Note: README.md
# heo-xas-xrd
Code for processing and plotting of data from XAS and XRD studies performed at SOLEIL/ROCK and ESRF/BM23. Detailed usage instructions are available but not here.

# Files
### `OLD-xas-compare-pca`
Uses a deprecated naive method for data normalization. Should never be used. See `xas-pca-compare`.

### `fdmgen` and `fdmgen-config`
Simple script for batch-producing FDMNES input files that reference a CIF structure directly. To be run from the same directory in which the `fdmfile` should be produced.

### `materials-project-query`
A failed attempt at custom queries to the Materials Project database using the new `mp-api`.

### `nexus-read`
An example of reading `.nxs` data. Not used in practice.

### `struct2xas-client`
Client notebook to produce FDMNES input files from CIF structures, including visualization and other quality-of-life features owing to `struct2xas`.

### `struct2xas`
A version of bfoschiani's `struct2xas` I use. Currently has some issues with certain structures.

### `xas-pca-compare`
Intended to take inconveniently large sets of normalized XAS data and cluster the spectra based on their principle component decompositions with no manual intervention.

### `xas-pca-time-evolution`
See `xas-pca-compare`, also includes ability to plot timeseries tracking evolution of XAS spectra through the space of XAS data. Will become useful once time-resolved XAS are available, in addition to steady-state references. Currently tested on time-resolved XANES data, with mediocre results.

### `xas-time-evolution-bm23`
For plotting XAS over time and temperature, as well as spectrograms of change over time, and integrated change over time (difference spectra). Works with ESRF beamline HDF5 files.

### `xas-time-evolution-rock`
Same as `xas-time-evolution-bm23` but includes code to read the specific directory structure produced by the ROCK beamline at SOLEIL when operated in quick-EXAFS mode and processed using `moulinex` and whatever other dark magic they have over there.

### `rocklogparse`
Fragile code hacked together for parsing log files made in human-readable formats.

### `xrd-batch-integrate`
Uses geometry (PONI) data acquired through calibration images (`xrd-cal`) to perform azimuthal integration on XRD patterns from area detectors.

### `xrd-cal`
Client to `pyfai` for calibration of area detectors.

### `xrd-sim`
Work in progress for producing fake images of XRD patterns given geometry and sample data.

### `xrd-time-evolution`
Used to plot azimuthally integrated XRD patterns over time and temperature.

File: wam39b_rampe_1_xrd_000001_integrated.dat
# == pyFAI calibration ==
# Distance Sample to Detector: 0.261615 m
# PONI: 2.023e-01, 2.348e-01 m
# Rotations: -0.026380 0.002005 0.000000 rad
#
# == Fit2d calibration ==
# Distance Sample-beamCenter: 261.707 mm
# Center: x=6119.331, y=5134.776 pix
# Tilt: 1.516 deg  TiltPlanRot: 4.347 deg
#
# Detector Rayonix SX165	 PixelSize= 3.950e-05, 3.950e-05 m
#    Detector has a mask: True
#    Detector has a dark current: False
#    detector has a flat field: False
#
# Wavelength: 1.12713e-10 m
# Mask applied: from detector
# Dark current applied: False
# Flat field applied: False
# Polarization factor: None
# Normalization factor: 1.0
# --> ROCK\\WAM39B_integrated\wam39b_rampe_1_xrd_000001_integrated.dat
#       2th_deg             I
  2.502596e+01    4.520526e+03
  2.511750e+01    1.857796e+04
  2.520905e+01    1.891666e+04
  2.530059e+01    1.906661e+04
  2.539213e+01    1.866830e+04
  2.548367e+01    1.883809e+04
  2.557521e+01    1.929731e+04
  2.566675e+01    2.020065e+04
  2.575829e+01    2.099090e+04
  2.584984e+01    2.082008e+04
  2.594138e+01    2.006576e+04
  2.603292e+01    1.970956e+04
  2.612446e+01    1.982231e+04
  2.621600e+01    2.044590e+04
  2.630754e+01    2.159905e+04
  2.639908e+01    2.507128e+04
  2.649063e+01    3.074111e+04
  2.658217e+01    2.416447e+04
  2.667371e+01    2.133904e+04
  2.676525e+01    2.087274e+04
  2.685679e+01    2.057633e+04
  2.694833e+01    1.991518e+04
  2.703988e+01    1.890669e+04
  2.713142e+01    1.785149e+04
  2.722296e+01    1.696651e+04
  2.731450e+01    1.637356e+04
  2.740604e+01    1.593826e+04
  2.749758e+01    1.569921e+04
  2.758912e+01    1.554125e+04
  2.768067e+01    1.546974e+04
  2.777221e+01    1.551655e+04
  2.786375e+01    1.581088e+04
  2.795529e+01    1.652592e+04
  2.804683e+01    1.867795e+04
  2.813837e+01    2.127436e+04
  2.822991e+01    1.742419e+04
  2.832146e+01    1.530631e+04
  2.841300e+01    1.429634e+04
  2.850454e+01    1.373495e+04
  2.859608e+01    1.335049e+04
  2.868762e+01    1.304134e+04
  2.877916e+01    1.278604e+04
  2.887070e+01    1.256053e+04
  2.896225e+01    1.234065e+04
  2.905379e+01    1.213596e+04
  2.914533e+01    1.196465e+04
  2.923687e+01    1.182576e+04
  2.932841e+01    1.167587e+04
  2.941995e+01    1.156552e+04
  2.951149e+01    1.154764e+04
  2.960304e+01    1.205837e+04
  2.969458e+01    1.302398e+04
  2.978612e+01    1.166439e+04
  2.987766e+01    1.108430e+04
  2.996920e+01    1.094673e+04
  3.006074e+01    1.089794e+04
  3.015228e+01    1.088848e+04
  3.024383e+01    1.088815e+04
  3.033537e+01    1.095134e+04
  3.042691e+01    1.106993e+04
  3.051845e+01    1.125673e+04
  3.060999e+01    1.154441e+04
  3.070153e+01    1.198711e+04
  3.079308e+01    1.268450e+04
  3.088462e+01    1.373000e+04
  3.097616e+01    1.538003e+04
  3.106770e+01    1.994698e+04
  3.115924e+01    3.207634e+04
  3.125078e+01    2.280345e+04
  3.134232e+01    1.511557e+04
  3.143387e+01    1.292599e+04
  3.152541e+01    1.181336e+04
  3.161695e+01    1.114369e+04
  3.170849e+01    1.070888e+04
  3.180003e+01    1.041228e+04
  3.189157e+01    1.019998e+04
  3.198311e+01    1.004046e+04
  3.207466e+01    9.895581e+03
  3.216620e+01    9.769214e+03
  3.225774e+01    9.661643e+03
  3.234928e+01    9.575210e+03
  3.244082e+01    9.592057e+03
  3.253236e+01    1.026142e+04
  3.262390e+01    1.075004e+04
  3.271545e+01    9.479105e+03
  3.280699e+01    9.100988e+03
  3.289853e+01    8.968625e+03
  3.299007e+01    8.881699e+03
  3.308161e+01    8.825052e+03
  3.317315e+01    8.773011e+03
  3.326469e+01    8.730422e+03
  3.335624e+01    8.715874e+03
  3.344778e+01    8.719195e+03
  3.353932e+01    8.710551e+03
  3.363086e+01    8.765227e+03
  3.372240e+01    8.991958e+03
  3.381394e+01    1.003633e+04
  3.390549e+01    1.633732e+04
  3.399703e+01    2.023131e+04
  3.408857e+01    1.123585e+04
  3.418011e+01    9.143573e+03
  3.427165e+01    8.750006e+03
  3.436319e+01    8.583988e+03
  3.445473e+01    8.452990e+03
  3.454628e+01    8.326177e+03
  3.463782e+01    8.232259e+03
  3.472936e+01    8.183543e+03
  3.482090e+01    8.158456e+03
  3.491244e+01    8.190159e+03
  3.500398e+01    8.269440e+03
  3.509552e+01    8.368334e+03
  3.518707e+01    8.348246e+03
  3.527861e+01    8.183028e+03
  3.537015e+01    8.009290e+03
  3.546169e+01    7.870254e+03
  3.555323e+01    7.780388e+03
  3.564477e+01    7.687730e+03
  3.573631e+01    7.642401e+03
  3.582786e+01    7.618425e+03
  3.591940e+01    7.593920e+03
  3.601094e+01    7.598172e+03
  3.610248e+01    7.605683e+03
  3.619402e+01    7.635282e+03
  3.628556e+01    7.698808e+03
  3.637710e+01    7.921403e+03
  3.646865e+01    9.142314e+03
  3.656019e+01    1.275273e+04
  3.665173e+01    9.907432e+03
  3.674327e+01    8.093688e+03
  3.683481e+01    7.813065e+03
  3.692635e+01    7.763780e+03
  3.701790e+01    7.769332e+03
  3.710944e+01    7.816761e+03
  3.720098e+01    7.931094e+03
  3.729252e+01    8.071614e+03
  3.738406e+01    8.302621e+03
  3.747560e+01    8.792954e+03
  3.756714e+01    1.003867e+04
  3.765869e+01    1.498995e+04
  3.775023e+01    4.507822e+04
  3.784177e+01    6.274048e+04
  3.793331e+01    2.066043e+04
  3.802485e+01    1.103121e+04
  3.811639e+01    9.130611e+03
  3.820793e+01    8.463915e+03
  3.829948e+01    8.172429e+03
  3.839102e+01    8.026885e+03
  3.848256e+01    7.952405e+03
  3.857410e+01    7.896284e+03
  3.866564e+01    7.841366e+03
  3.875718e+01    7.823719e+03
  3.884872e+01    7.924477e+03
  3.894027e+01    8.787551e+03
  3.903181e+01    1.006665e+04
  3.912335e+01    8.336259e+03
  3.921489e+01    7.763923e+03
  3.930643e+01    7.653233e+03
  3.939797e+01    7.611523e+03
  3.948951e+01    7.566819e+03
  3.958106e+01    7.546508e+03
  3.967260e+01    7.522051e+03
  3.976414e+01    7.500783e+03
  3.985568e+01    7.512850e+03
  3.994722e+01    7.522469e+03
  4.003876e+01    7.552559e+03
  4.013031e+01    7.875725e+03
  4.022185e+01    8.126208e+03
  4.031339e+01    7.747500e+03
  4.040493e+01    7.735846e+03
  4.049647e+01    7.816229e+03
  4.058801e+01    7.816816e+03
  4.067955e+01    7.716522e+03
  4.077110e+01    7.590582e+03
  4.086264e+01    7.510255e+03
  4.095418e+01    7.472303e+03
  4.104572e+01    7.496385e+03
  4.113726e+01    7.705710e+03
  4.122880e+01    8.919294e+03
  4.132034e+01    1.366759e+04
  4.141189e+01    1.111329e+04
  4.150343e+01    8.132653e+03
  4.159497e+01    7.713442e+03
  4.168651e+01    7.664506e+03
  4.177805e+01    7.628843e+03
  4.186959e+01    7.574424e+03
  4.196113e+01    7.520158e+03
  4.205268e+01    7.500398e+03
  4.214422e+01    7.481658e+03
  4.223576e+01    7.514516e+03
  4.232730e+01    7.664009e+03
  4.241884e+01    8.548866e+03
  4.251038e+01    8.488569e+03
  4.260192e+01    7.514234e+03
  4.269347e+01    7.285158e+03
  4.278501e+01    7.203221e+03
  4.287655e+01    7.145353e+03
  4.296809e+01    7.130879e+03
  4.305963e+01    7.120980e+03
  4.315117e+01    7.144280e+03
  4.324272e+01    7.207689e+03
  4.333426e+01    7.374328e+03
  4.342580e+01    8.080768e+03
  4.351734e+01    1.166361e+04
  4.360888e+01    1.151597e+04
  4.370042e+01    8.228758e+03
  4.379196e+01    7.731463e+03
  4.388351e+01    7.818014e+03
  4.397505e+01    7.994439e+03
  4.406659e+01    8.115001e+03
  4.415813e+01    8.304802e+03
  4.424967e+01    8.667390e+03
  4.434121e+01    9.277527e+03
  4.443275e+01    1.047419e+04
  4.452430e+01    1.518002e+04
  4.461584e+01    3.165806e+04
  4.470738e+01    2.163696e+04
  4.479892e+01    1.132799e+04
  4.489046e+01    9.248553e+03
  4.498200e+01    8.456385e+03
  4.507354e+01    8.007875e+03
  4.516509e+01    7.721103e+03
  4.525663e+01    7.558579e+03
  4.534817e+01    7.467667e+03
  4.543971e+01    7.533139e+03
  4.553125e+01    8.035757e+03
  4.562279e+01    1.109765e+04
  4.571433e+01    1.355931e+04
  4.580588e+01    8.852484e+03
  4.589742e+01    7.605017e+03
  4.598896e+01    7.335058e+03
  4.608050e+01    7.236486e+03
  4.617204e+01    7.195681e+03
  4.626358e+01    7.165898e+03
  4.635513e+01    7.136578e+03
  4.644667e+01    7.142847e+03
  4.653821e+01    7.221183e+03
  4.662975e+01    7.783532e+03
  4.672129e+01    9.089415e+03
  4.681283e+01    7.925221e+03
  4.690437e+01    7.362867e+03
  4.699592e+01    7.324292e+03
  4.708746e+01    7.368415e+03
  4.717900e+01    7.340068e+03
  4.727054e+01    7.277769e+03
  4.736208e+01    7.256672e+03
  4.745362e+01    7.360222e+03
  4.754516e+01    7.636845e+03
  4.763671e+01    8.202828e+03
  4.772825e+01    8.985053e+03
  4.781979e+01    7.802159e+03
  4.788844e+01    2.997235e+03

File: wam39b_rampe_1_xrd_000002_integrated.dat
# == pyFAI calibration ==
# Distance Sample to Detector: 0.261615 m
# PONI: 2.023e-01, 2.348e-01 m
# Rotations: -0.026380 0.002005 0.000000 rad
#
# == Fit2d calibration ==
# Distance Sample-beamCenter: 261.707 mm
# Center: x=6119.331, y=5134.776 pix
# Tilt: 1.516 deg  TiltPlanRot: 4.347 deg
#
# Detector Rayonix SX165	 PixelSize= 3.950e-05, 3.950e-05 m
#    Detector has a mask: True
#    Detector has a dark current: False
#    detector has a flat field: False
#
# Wavelength: 1.12713e-10 m
# Mask applied: from detector
# Dark current applied: False
# Flat field applied: False
# Polarization factor: None
# Normalization factor: 1.0
# --> ROCK\\WAM39B_integrated\wam39b_rampe_1_xrd_000002_integrated.dat
#       2th_deg             I
  2.502596e+01    4.927042e+03
  2.511750e+01    2.027294e+04
  2.520905e+01    2.067630e+04
  2.530059e+01    2.083772e+04
  2.539213e+01    2.038101e+04
  2.548367e+01    2.053853e+04
  2.557521e+01    2.099572e+04
  2.566675e+01    2.196725e+04
  2.575829e+01    2.283784e+04
  2.584984e+01    2.275355e+04
  2.594138e+01    2.194035e+04
  2.603292e+01    2.149442e+04
  2.612446e+01    2.157671e+04
  2.621600e+01    2.225802e+04
  2.630754e+01    2.343914e+04
  2.639908e+01    2.691334e+04
  2.649063e+01    3.356556e+04
  2.658217e+01    2.675216e+04
  2.667371e+01    2.338758e+04
  2.676525e+01    2.280627e+04
  2.685679e+01    2.245945e+04
  2.694833e+01    2.175574e+04
  2.703988e+01    2.066825e+04
  2.713142e+01    1.951013e+04
  2.722296e+01    1.855019e+04
  2.731450e+01    1.788660e+04
  2.740604e+01    1.741522e+04
  2.749758e+01    1.713975e+04
  2.758912e+01    1.698235e+04
  2.768067e+01    1.688336e+04
  2.777221e+01    1.690907e+04
  2.786375e+01    1.724610e+04
  2.795529e+01    1.797906e+04
  2.804683e+01    2.010222e+04
  2.813837e+01    2.323768e+04
  2.822991e+01    1.918913e+04
  2.832146e+01    1.674924e+04
  2.841300e+01    1.564103e+04
  2.850454e+01    1.500523e+04
  2.859608e+01    1.459016e+04
  2.868762e+01    1.422898e+04
  2.877916e+01    1.395117e+04
  2.887070e+01    1.370658e+04
  2.896225e+01    1.347043e+04
  2.905379e+01    1.325634e+04
  2.914533e+01    1.306188e+04
  2.923687e+01    1.291497e+04
  2.932841e+01    1.274400e+04
  2.941995e+01    1.262211e+04
  2.951149e+01    1.258019e+04
  2.960304e+01    1.306838e+04
  2.969458e+01    1.422167e+04
  2.978612e+01    1.281890e+04
  2.987766e+01    1.210998e+04
  2.996920e+01    1.195450e+04
  3.006074e+01    1.190138e+04
  3.015228e+01    1.188890e+04
  3.024383e+01    1.188895e+04
  3.033537e+01    1.194979e+04
  3.042691e+01    1.207136e+04
  3.051845e+01    1.226307e+04
  3.060999e+01    1.256839e+04
  3.070153e+01    1.306142e+04
  3.079308e+01    1.380371e+04
  3.088462e+01    1.489669e+04
  3.097616e+01    1.662518e+04
  3.106770e+01    2.103389e+04
  3.115924e+01    3.427753e+04
  3.125078e+01    2.594274e+04
  3.134232e+01    1.670289e+04
  3.143387e+01    1.416121e+04
  3.152541e+01    1.290801e+04
  3.161695e+01    1.216631e+04
  3.170849e+01    1.170155e+04
  3.180003e+01    1.137199e+04
  3.189157e+01    1.114144e+04
  3.198311e+01    1.095462e+04
  3.207466e+01    1.079582e+04
  3.216620e+01    1.065248e+04
  3.225774e+01    1.054002e+04
  3.234928e+01    1.044661e+04
  3.244082e+01    1.043426e+04
  3.253236e+01    1.107734e+04
  3.262390e+01    1.180202e+04
  3.271545e+01    1.040691e+04
  3.280699e+01    9.941141e+03
  3.289853e+01    9.788293e+03
  3.299007e+01    9.691777e+03
  3.308161e+01    9.622707e+03
  3.317315e+01    9.565604e+03
  3.326469e+01    9.529524e+03
  3.335624e+01    9.516866e+03
  3.344778e+01    9.507416e+03
  3.353932e+01    9.504243e+03
  3.363086e+01    9.553071e+03
  3.372240e+01    9.781556e+03
  3.381394e+01    1.074947e+04
  3.390549e+01    1.676750e+04
  3.399703e+01    2.265487e+04
  3.408857e+01    1.268780e+04
  3.418011e+01    1.005323e+04
  3.427165e+01    9.555674e+03
  3.436319e+01    9.365808e+03
  3.445473e+01    9.231841e+03
  3.454628e+01    9.095862e+03
  3.463782e+01    8.994192e+03
  3.472936e+01    8.923610e+03
  3.482090e+01    8.892652e+03
  3.491244e+01    8.917406e+03
  3.500398e+01    8.995599e+03
  3.509552e+01    9.117036e+03
  3.518707e+01    9.118487e+03
  3.527861e+01    8.951273e+03
  3.537015e+01    8.755583e+03
  3.546169e+01    8.601746e+03
  3.555323e+01    8.487458e+03
  3.564477e+01    8.403681e+03
  3.573631e+01    8.352211e+03
  3.582786e+01    8.308140e+03
  3.591940e+01    8.295583e+03
  3.601094e+01    8.284727e+03
  3.610248e+01    8.292755e+03
  3.619402e+01    8.324915e+03
  3.628556e+01    8.388407e+03
  3.637710e+01    8.599562e+03
  3.646865e+01    9.718636e+03
  3.656019e+01    1.370987e+04
  3.665173e+01    1.118305e+04
  3.674327e+01    8.895482e+03
  3.683481e+01    8.529381e+03
  3.692635e+01    8.481800e+03
  3.701790e+01    8.483630e+03
  3.710944e+01    8.535009e+03
  3.720098e+01    8.628863e+03
  3.729252e+01    8.795955e+03
  3.738406e+01    9.034908e+03
  3.747560e+01    9.520630e+03
  3.756714e+01    1.073987e+04
  3.765869e+01    1.528281e+04
  3.775023e+01    4.359341e+04
  3.784177e+01    7.163249e+04
  3.793331e+01    2.492365e+04
  3.802485e+01    1.239170e+04
  3.811639e+01    1.007952e+04
  3.820793e+01    9.275988e+03
  3.829948e+01    8.934133e+03
  3.839102e+01    8.764595e+03
  3.848256e+01    8.683084e+03
  3.857410e+01    8.625372e+03
  3.866564e+01    8.566827e+03
  3.875718e+01    8.537519e+03
  3.884872e+01    8.624182e+03
  3.894027e+01    9.396484e+03
  3.903181e+01    1.102357e+04
  3.912335e+01    9.240933e+03
  3.921489e+01    8.498655e+03
  3.930643e+01    8.356304e+03
  3.939797e+01    8.317432e+03
  3.948951e+01    8.263983e+03
  3.958106e+01    8.247281e+03
  3.967260e+01    8.210316e+03
  3.976414e+01    8.198880e+03
  3.985568e+01    8.192355e+03
  3.994722e+01    8.202030e+03
  4.003876e+01    8.231173e+03
  4.013031e+01    8.532507e+03
  4.022185e+01    8.887166e+03
  4.031339e+01    8.469722e+03
  4.040493e+01    8.428612e+03
  4.049647e+01    8.509213e+03
  4.058801e+01    8.525336e+03
  4.067955e+01    8.437644e+03
  4.077110e+01    8.306829e+03
  4.086264e+01    8.204688e+03
  4.095418e+01    8.156293e+03
  4.104572e+01    8.179151e+03
  4.113726e+01    8.370234e+03
  4.122880e+01    9.437776e+03
  4.132034e+01    1.440229e+04
  4.141189e+01    1.268871e+04
  4.150343e+01    8.994274e+03
  4.159497e+01    8.433646e+03
  4.168651e+01    8.354047e+03
  4.177805e+01    8.327127e+03
  4.186959e+01    8.250381e+03
  4.196113e+01    8.192614e+03
  4.205268e+01    8.166994e+03
  4.214422e+01    8.154661e+03
  4.223576e+01    8.182372e+03
  4.232730e+01    8.319220e+03
  4.241884e+01    9.174807e+03
  4.251038e+01    9.392043e+03
  4.260192e+01    8.245746e+03
  4.269347e+01    7.965535e+03
  4.278501e+01    7.866479e+03
  4.287655e+01    7.807511e+03
  4.296809e+01    7.789731e+03
  4.305963e+01    7.775614e+03
  4.315117e+01    7.793833e+03
  4.324272e+01    7.851975e+03
  4.333426e+01    8.020538e+03
  4.342580e+01    8.648405e+03
  4.351734e+01    1.207212e+04
  4.360888e+01    1.304765e+04
  4.370042e+01    9.138199e+03
  4.379196e+01    8.444426e+03
  4.388351e+01    8.507128e+03
  4.397505e+01    8.700004e+03
  4.406659e+01    8.853984e+03
  4.415813e+01    9.037591e+03
  4.424967e+01    9.413764e+03
  4.434121e+01    1.004195e+04
  4.443275e+01    1.119994e+04
  4.452430e+01    1.536818e+04
  4.461584e+01    3.269647e+04
  4.470738e+01    2.588529e+04
  4.479892e+01    1.281475e+04
  4.489046e+01    1.017986e+04
  4.498200e+01    9.279048e+03
  4.507354e+01    8.746871e+03
  4.516509e+01    8.436620e+03
  4.525663e+01    8.246487e+03
  4.534817e+01    8.153846e+03
  4.543971e+01    8.193379e+03
  4.553125e+01    8.629849e+03
  4.562279e+01    1.136965e+04
  4.571433e+01    1.508418e+04
  4.580588e+01    1.003405e+04
  4.589742e+01    8.341711e+03
  4.598896e+01    8.001886e+03
  4.608050e+01    7.907540e+03
  4.617204e+01    7.849869e+03
  4.626358e+01    7.825247e+03
  4.635513e+01    7.797702e+03
  4.644667e+01    7.782954e+03
  4.653821e+01    7.868031e+03
  4.662975e+01    8.345007e+03
  4.672129e+01    9.863776e+03
  4.681283e+01    8.819053e+03
  4.690437e+01    8.056131e+03
  4.699592e+01    7.996502e+03
  4.708746e+01    8.039849e+03
  4.717900e+01    8.007153e+03
  4.727054e+01    7.963775e+03
  4.736208e+01    7.930792e+03
  4.745362e+01    8.021476e+03
  4.754516e+01    8.315537e+03
  4.763671e+01    8.863232e+03
  4.772825e+01    9.761260e+03
  4.781979e+01    8.628609e+03
  4.788844e+01    3.292603e+03