Folder: heo-xas-xrd/Output/ROCK_XRD/WAM39B_integrated/rampe1 (part 5)

File: wam39b_rampe_1_xrd_000012_integrated.dat
# == pyFAI calibration ==
# Distance Sample to Detector: 0.261615 m
# PONI: 2.023e-01, 2.348e-01 m
# Rotations: -0.026380 0.002005 0.000000 rad
#
# == Fit2d calibration ==
# Distance Sample-beamCenter: 261.707 mm
# Center: x=6119.331, y=5134.776 pix
# Tilt: 1.516 deg  TiltPlanRot: 4.347 deg
#
# Detector Rayonix SX165	 PixelSize= 3.950e-05, 3.950e-05 m
#    Detector has a mask: True
#    Detector has a dark current: False
#    detector has a flat field: False
#
# Wavelength: 1.12713e-10 m
# Mask applied: from detector
# Dark current applied: False
# Flat field applied: False
# Polarization factor: None
# Normalization factor: 1.0
# --> ROCK\\WAM39B_integrated\wam39b_rampe_1_xrd_000012_integrated.dat
#       2th_deg             I
  2.502596e+01    4.640091e+03
  2.511750e+01    1.908870e+04
  2.520905e+01    1.942155e+04
  2.530059e+01    1.961984e+04
  2.539213e+01    1.931165e+04
  2.548367e+01    1.968963e+04
  2.557521e+01    2.051285e+04
  2.566675e+01    2.147244e+04
  2.575829e+01    2.167488e+04
  2.584984e+01    2.096550e+04
  2.594138e+01    2.030909e+04
  2.603292e+01    2.036383e+04
  2.612446e+01    2.088238e+04
  2.621600e+01    2.202965e+04
  2.630754e+01    2.496868e+04
  2.639908e+01    3.217926e+04
  2.649063e+01    2.724075e+04
  2.658217e+01    2.293614e+04
  2.667371e+01    2.214910e+04
  2.676525e+01    2.157935e+04
  2.685679e+01    2.060215e+04
  2.694833e+01    1.935465e+04
  2.703988e+01    1.824355e+04
  2.713142e+01    1.743418e+04
  2.722296e+01    1.682865e+04
  2.731450e+01    1.645869e+04
  2.740604e+01    1.616266e+04
  2.749758e+01    1.602896e+04
  2.758912e+01    1.599977e+04
  2.768067e+01    1.610098e+04
  2.777221e+01    1.642776e+04
  2.786375e+01    1.724109e+04
  2.795529e+01    1.905636e+04
  2.804683e+01    2.197095e+04
  2.813837e+01    1.831560e+04
  2.822991e+01    1.569365e+04
  2.832146e+01    1.470268e+04
  2.841300e+01    1.411341e+04
  2.850454e+01    1.373854e+04
  2.859608e+01    1.346667e+04
  2.868762e+01    1.320018e+04
  2.877916e+01    1.298640e+04
  2.887070e+01    1.277622e+04
  2.896225e+01    1.258816e+04
  2.905379e+01    1.237322e+04
  2.914533e+01    1.221051e+04
  2.923687e+01    1.208752e+04
  2.932841e+01    1.195082e+04
  2.941995e+01    1.190551e+04
  2.951149e+01    1.229124e+04
  2.960304e+01    1.343666e+04
  2.969458e+01    1.216801e+04
  2.978612e+01    1.148326e+04
  2.987766e+01    1.129438e+04
  2.996920e+01    1.124010e+04
  3.006074e+01    1.124018e+04
  3.015228e+01    1.127858e+04
  3.024383e+01    1.134430e+04
  3.033537e+01    1.149296e+04
  3.042691e+01    1.173282e+04
  3.051845e+01    1.210059e+04
  3.060999e+01    1.267997e+04
  3.070153e+01    1.358358e+04
  3.079308e+01    1.483646e+04
  3.088462e+01    1.643132e+04
  3.097616e+01    2.028835e+04
  3.106770e+01    3.239043e+04
  3.115924e+01    2.396904e+04
  3.125078e+01    1.510612e+04
  3.134232e+01    1.284796e+04
  3.143387e+01    1.186318e+04
  3.152541e+01    1.129193e+04
  3.161695e+01    1.090894e+04
  3.170849e+01    1.065289e+04
  3.180003e+01    1.044300e+04
  3.189157e+01    1.028629e+04
  3.198311e+01    1.015622e+04
  3.207466e+01    1.003795e+04
  3.216620e+01    9.924466e+03
  3.225774e+01    9.830272e+03
  3.234928e+01    9.847399e+03
  3.244082e+01    1.047138e+04
  3.253236e+01    1.103201e+04
  3.262390e+01    9.749670e+03
  3.271545e+01    9.363978e+03
  3.280699e+01    9.224282e+03
  3.289853e+01    9.145889e+03
  3.299007e+01    9.072148e+03
  3.308161e+01    9.022013e+03
  3.317315e+01    8.988062e+03
  3.326469e+01    8.966453e+03
  3.335624e+01    8.971801e+03
  3.344778e+01    8.970886e+03
  3.353932e+01    9.011945e+03
  3.363086e+01    9.245118e+03
  3.372240e+01    1.027426e+04
  3.381394e+01    1.675042e+04
  3.390549e+01    2.050966e+04
  3.399703e+01    1.143870e+04
  3.408857e+01    9.373092e+03
  3.418011e+01    8.982142e+03
  3.427165e+01    8.842655e+03
  3.436319e+01    8.731579e+03
  3.445473e+01    8.604869e+03
  3.454628e+01    8.497003e+03
  3.463782e+01    8.423470e+03
  3.472936e+01    8.388780e+03
  3.482090e+01    8.387277e+03
  3.491244e+01    8.444833e+03
  3.500398e+01    8.552744e+03
  3.509552e+01    8.622478e+03
  3.518707e+01    8.517286e+03
  3.527861e+01    8.318282e+03
  3.537015e+01    8.155689e+03
  3.546169e+01    8.042688e+03
  3.555323e+01    7.950179e+03
  3.564477e+01    7.878040e+03
  3.573631e+01    7.838864e+03
  3.582786e+01    7.813959e+03
  3.591940e+01    7.812131e+03
  3.601094e+01    7.823776e+03
  3.610248e+01    7.849300e+03
  3.619402e+01    7.934054e+03
  3.628556e+01    8.174938e+03
  3.637710e+01    9.608669e+03
  3.646865e+01    1.307728e+04
  3.656019e+01    9.822262e+03
  3.665173e+01    8.269337e+03
  3.674327e+01    8.036047e+03
  3.683481e+01    7.993923e+03
  3.692635e+01    8.018003e+03
  3.701790e+01    8.067003e+03
  3.710944e+01    8.170757e+03
  3.720098e+01    8.351293e+03
  3.729252e+01    8.625512e+03
  3.738406e+01    9.147678e+03
  3.747560e+01    1.055304e+04
  3.756714e+01    1.669644e+04
  3.765869e+01    5.322077e+04
  3.775023e+01    5.797698e+04
  3.784177e+01    1.851928e+04
  3.793331e+01    1.094617e+04
  3.802485e+01    9.289211e+03
  3.811639e+01    8.706159e+03
  3.820793e+01    8.420376e+03
  3.829948e+01    8.300560e+03
  3.839102e+01    8.224506e+03
  3.848256e+01    8.147032e+03
  3.857410e+01    8.103898e+03
  3.866564e+01    8.094953e+03
  3.875718e+01    8.247942e+03
  3.884872e+01    9.368838e+03
  3.894027e+01    1.013050e+04
  3.903181e+01    8.424549e+03
  3.912335e+01    8.016410e+03
  3.921489e+01    7.928039e+03
  3.930643e+01    7.895001e+03
  3.939797e+01    7.864760e+03
  3.948951e+01    7.837637e+03
  3.958106e+01    7.816446e+03
  3.967260e+01    7.806421e+03
  3.976414e+01    7.783476e+03
  3.985568e+01    7.798176e+03
  3.994722e+01    7.860439e+03
  4.003876e+01    8.244021e+03
  4.013031e+01    8.292135e+03
  4.022185e+01    7.987546e+03
  4.031339e+01    8.042307e+03
  4.040493e+01    8.122966e+03
  4.049647e+01    8.120151e+03
  4.058801e+01    8.019465e+03
  4.067955e+01    7.877478e+03
  4.077110e+01    7.794176e+03
  4.086264e+01    7.758983e+03
  4.095418e+01    7.827725e+03
  4.104572e+01    8.123140e+03
  4.113726e+01    1.004674e+04
  4.122880e+01    1.445437e+04
  4.132034e+01    1.019946e+04
  4.141189e+01    8.319139e+03
  4.150343e+01    8.039353e+03
  4.159497e+01    7.922551e+03
  4.168651e+01    7.833227e+03
  4.177805e+01    7.758474e+03
  4.186959e+01    7.740589e+03
  4.196113e+01    7.732231e+03
  4.205268e+01    7.757090e+03
  4.214422e+01    7.804188e+03
  4.223576e+01    8.052853e+03
  4.232730e+01    9.077410e+03
  4.241884e+01    8.374021e+03
  4.251038e+01    7.693529e+03
  4.260192e+01    7.535677e+03
  4.269347e+01    7.485897e+03
  4.278501e+01    7.440833e+03
  4.287655e+01    7.421012e+03
  4.296809e+01    7.424158e+03
  4.305963e+01    7.454140e+03
  4.315117e+01    7.542544e+03
  4.324272e+01    7.780123e+03
  4.333426e+01    8.999070e+03
  4.342580e+01    1.315506e+04
  4.351734e+01    1.035126e+04
  4.360888e+01    8.260192e+03
  4.370042e+01    8.091737e+03
  4.379196e+01    8.266352e+03
  4.388351e+01    8.538392e+03
  4.397505e+01    8.747837e+03
  4.406659e+01    9.038214e+03
  4.415813e+01    9.523661e+03
  4.424967e+01    1.021009e+04
  4.434121e+01    1.176750e+04
  4.443275e+01    2.028689e+04
  4.452430e+01    3.259652e+04
  4.461584e+01    1.596728e+04
  4.470738e+01    1.016874e+04
  4.479892e+01    8.912833e+03
  4.489046e+01    8.400414e+03
  4.498200e+01    8.108637e+03
  4.507354e+01    7.906127e+03
  4.516509e+01    7.796431e+03
  4.525663e+01    7.758304e+03
  4.534817e+01    7.916623e+03
  4.543971e+01    8.879993e+03
  4.553125e+01    1.354126e+04
  4.562279e+01    1.181341e+04
  4.571433e+01    8.371688e+03
  4.580588e+01    7.738166e+03
  4.589742e+01    7.579691e+03
  4.598896e+01    7.507409e+03
  4.608050e+01    7.453974e+03
  4.617204e+01    7.428879e+03
  4.626358e+01    7.403369e+03
  4.635513e+01    7.419084e+03
  4.644667e+01    7.581367e+03
  4.653821e+01    8.738859e+03
  4.662975e+01    9.080051e+03
  4.672129e+01    7.773381e+03
  4.681283e+01    7.549816e+03
  4.690437e+01    7.552114e+03
  4.699592e+01    7.558128e+03
  4.708746e+01    7.509706e+03
  4.717900e+01    7.432056e+03
  4.727054e+01    7.434195e+03
  4.736208e+01    7.511210e+03
  4.745362e+01    7.749688e+03
  4.754516e+01    8.757221e+03
  4.763671e+01    9.251849e+03
  4.772825e+01    8.183806e+03
  4.781979e+01    7.661478e+03
  4.788844e+01    3.084267e+03

File: wam39b_rampe_1_xrd_000013_integrated.dat
# == pyFAI calibration ==
# Distance Sample to Detector: 0.261615 m
# PONI: 2.023e-01, 2.348e-01 m
# Rotations: -0.026380 0.002005 0.000000 rad
#
# == Fit2d calibration ==
# Distance Sample-beamCenter: 261.707 mm
# Center: x=6119.331, y=5134.776 pix
# Tilt: 1.516 deg  TiltPlanRot: 4.347 deg
#
# Detector Rayonix SX165	 PixelSize= 3.950e-05, 3.950e-05 m
#    Detector has a mask: True
#    Detector has a dark current: False
#    detector has a flat field: False
#
# Wavelength: 1.12713e-10 m
# Mask applied: from detector
# Dark current applied: False
# Flat field applied: False
# Polarization factor: None
# Normalization factor: 1.0
# --> ROCK\\WAM39B_integrated\wam39b_rampe_1_xrd_000013_integrated.dat
#       2th_deg             I
  2.502596e+01    4.505761e+03
  2.511750e+01    1.853051e+04
  2.520905e+01    1.888195e+04
  2.530059e+01    1.907236e+04
  2.539213e+01    1.879246e+04
  2.548367e+01    1.924672e+04
  2.557521e+01    2.009290e+04
  2.566675e+01    2.094617e+04
  2.575829e+01    2.110690e+04
  2.584984e+01    2.030187e+04
  2.594138e+01    1.973011e+04
  2.603292e+01    1.986145e+04
  2.612446e+01    2.045388e+04
  2.621600e+01    2.169359e+04
  2.630754e+01    2.511112e+04
  2.639908e+01    3.168228e+04
  2.649063e+01    2.550383e+04
  2.658217e+01    2.215801e+04
  2.667371e+01    2.150857e+04
  2.676525e+01    2.087122e+04
  2.685679e+01    1.986011e+04
  2.694833e+01    1.862260e+04
  2.703988e+01    1.757530e+04
  2.713142e+01    1.685593e+04
  2.722296e+01    1.631401e+04
  2.731450e+01    1.595709e+04
  2.740604e+01    1.569689e+04
  2.749758e+01    1.557678e+04
  2.758912e+01    1.556916e+04
  2.768067e+01    1.569327e+04
  2.777221e+01    1.607705e+04
  2.786375e+01    1.698781e+04
  2.795529e+01    1.904154e+04
  2.804683e+01    2.129900e+04
  2.813837e+01    1.721096e+04
  2.822991e+01    1.506874e+04
  2.832146e+01    1.419767e+04
  2.841300e+01    1.367781e+04
  2.850454e+01    1.331700e+04
  2.859608e+01    1.306226e+04
  2.868762e+01    1.281499e+04
  2.877916e+01    1.260913e+04
  2.887070e+01    1.240440e+04
  2.896225e+01    1.220459e+04
  2.905379e+01    1.202476e+04
  2.914533e+01    1.187518e+04
  2.923687e+01    1.174872e+04
  2.932841e+01    1.163246e+04
  2.941995e+01    1.161416e+04
  2.951149e+01    1.214228e+04
  2.960304e+01    1.304346e+04
  2.969458e+01    1.165773e+04
  2.978612e+01    1.112787e+04
  2.987766e+01    1.099280e+04
  2.996920e+01    1.093565e+04
  3.006074e+01    1.094201e+04
  3.015228e+01    1.099538e+04
  3.024383e+01    1.105824e+04
  3.033537e+01    1.122431e+04
  3.042691e+01    1.147255e+04
  3.051845e+01    1.189335e+04
  3.060999e+01    1.250382e+04
  3.070153e+01    1.344862e+04
  3.079308e+01    1.472345e+04
  3.088462e+01    1.637986e+04
  3.097616e+01    2.116107e+04
  3.106770e+01    3.228645e+04
  3.115924e+01    2.090826e+04
  3.125078e+01    1.410075e+04
  3.134232e+01    1.224796e+04
  3.143387e+01    1.141167e+04
  3.152541e+01    1.090165e+04
  3.161695e+01    1.056116e+04
  3.170849e+01    1.032129e+04
  3.180003e+01    1.014129e+04
  3.189157e+01    9.982584e+03
  3.198311e+01    9.853968e+03
  3.207466e+01    9.735692e+03
  3.216620e+01    9.635650e+03
  3.225774e+01    9.555839e+03
  3.234928e+01    9.612155e+03
  3.244082e+01    1.041655e+04
  3.253236e+01    1.051838e+04
  3.262390e+01    9.370647e+03
  3.271545e+01    9.085135e+03
  3.280699e+01    8.967554e+03
  3.289853e+01    8.899158e+03
  3.299007e+01    8.814829e+03
  3.308161e+01    8.762532e+03
  3.317315e+01    8.735135e+03
  3.326469e+01    8.726343e+03
  3.335624e+01    8.719442e+03
  3.344778e+01    8.732943e+03
  3.353932e+01    8.794837e+03
  3.363086e+01    9.072202e+03
  3.372240e+01    1.048195e+04
  3.381394e+01    1.831056e+04
  3.390549e+01    1.813972e+04
  3.399703e+01    1.041887e+04
  3.408857e+01    9.003020e+03
  3.418011e+01    8.705060e+03
  3.427165e+01    8.585346e+03
  3.436319e+01    8.470693e+03
  3.445473e+01    8.366767e+03
  3.454628e+01    8.262871e+03
  3.463782e+01    8.191047e+03
  3.472936e+01    8.158497e+03
  3.482090e+01    8.174793e+03
  3.491244e+01    8.237644e+03
  3.500398e+01    8.349671e+03
  3.509552e+01    8.390537e+03
  3.518707e+01    8.270089e+03
  3.527861e+01    8.064556e+03
  3.537015e+01    7.915664e+03
  3.546169e+01    7.810210e+03
  3.555323e+01    7.722473e+03
  3.564477e+01    7.664154e+03
  3.573631e+01    7.632666e+03
  3.582786e+01    7.603295e+03
  3.591940e+01    7.601307e+03
  3.601094e+01    7.617716e+03
  3.610248e+01    7.643522e+03
  3.619402e+01    7.748476e+03
  3.628556e+01    8.058873e+03
  3.637710e+01    1.004420e+04
  3.646865e+01    1.252253e+04
  3.656019e+01    8.994362e+03
  3.665173e+01    7.971746e+03
  3.674327e+01    7.808108e+03
  3.683481e+01    7.788831e+03
  3.692635e+01    7.812072e+03
  3.701790e+01    7.857646e+03
  3.710944e+01    7.982221e+03
  3.720098e+01    8.173401e+03
  3.729252e+01    8.456380e+03
  3.738406e+01    9.073886e+03
  3.747560e+01    1.082070e+04
  3.756714e+01    1.962093e+04
  3.765869e+01    6.165085e+04
  3.775023e+01    4.582495e+04
  3.784177e+01    1.518572e+04
  3.793331e+01    1.013643e+04
  3.802485e+01    8.870274e+03
  3.811639e+01    8.395671e+03
  3.820793e+01    8.163178e+03
  3.829948e+01    8.059113e+03
  3.839102e+01    7.981627e+03
  3.848256e+01    7.920050e+03
  3.857410e+01    7.892112e+03
  3.866564e+01    7.893634e+03
  3.875718e+01    8.130083e+03
  3.884872e+01    9.557326e+03
  3.894027e+01    9.476800e+03
  3.903181e+01    8.037536e+03
  3.912335e+01    7.770763e+03
  3.921489e+01    7.706091e+03
  3.930643e+01    7.676650e+03
  3.939797e+01    7.654578e+03
  3.948951e+01    7.636362e+03
  3.958106e+01    7.609314e+03
  3.967260e+01    7.591602e+03
  3.976414e+01    7.569215e+03
  3.985568e+01    7.582921e+03
  3.994722e+01    7.693370e+03
  4.003876e+01    8.129961e+03
  4.013031e+01    7.974107e+03
  4.022185e+01    7.766021e+03
  4.031339e+01    7.843098e+03
  4.040493e+01    7.915560e+03
  4.049647e+01    7.890944e+03
  4.058801e+01    7.766273e+03
  4.067955e+01    7.649595e+03
  4.077110e+01    7.576727e+03
  4.086264e+01    7.560569e+03
  4.095418e+01    7.651550e+03
  4.104572e+01    8.074848e+03
  4.113726e+01    1.084055e+04
  4.122880e+01    1.369655e+04
  4.132034e+01    9.164753e+03
  4.141189e+01    7.996367e+03
  4.150343e+01    7.788592e+03
  4.159497e+01    7.668194e+03
  4.168651e+01    7.597608e+03
  4.177805e+01    7.547627e+03
  4.186959e+01    7.526670e+03
  4.196113e+01    7.535478e+03
  4.205268e+01    7.543869e+03
  4.214422e+01    7.606078e+03
  4.223576e+01    8.016261e+03
  4.232730e+01    8.879192e+03
  4.241884e+01    7.902407e+03
  4.251038e+01    7.444000e+03
  4.260192e+01    7.325015e+03
  4.269347e+01    7.269345e+03
  4.278501e+01    7.228344e+03
  4.287655e+01    7.223752e+03
  4.296809e+01    7.239917e+03
  4.305963e+01    7.266646e+03
  4.315117e+01    7.375077e+03
  4.324272e+01    7.693087e+03
  4.333426e+01    9.535008e+03
  4.342580e+01    1.291196e+04
  4.351734e+01    9.217560e+03
  4.360888e+01    7.930921e+03
  4.370042e+01    7.905336e+03
  4.379196e+01    8.124579e+03
  4.388351e+01    8.372564e+03
  4.397505e+01    8.578335e+03
  4.406659e+01    8.935656e+03
  4.415813e+01    9.428562e+03
  4.424967e+01    1.018154e+04
  4.434121e+01    1.230807e+04
  4.443275e+01    2.432267e+04
  4.452430e+01    2.870168e+04
  4.461584e+01    1.306956e+04
  4.470738e+01    9.408938e+03
  4.479892e+01    8.510450e+03
  4.489046e+01    8.083194e+03
  4.498200e+01    7.831064e+03
  4.507354e+01    7.652330e+03
  4.516509e+01    7.555376e+03
  4.525663e+01    7.560632e+03
  4.534817e+01    7.810172e+03
  4.543971e+01    9.345436e+03
  4.553125e+01    1.389734e+04
  4.562279e+01    1.017166e+04
  4.571433e+01    7.870667e+03
  4.580588e+01    7.473405e+03
  4.589742e+01    7.359171e+03
  4.598896e+01    7.304419e+03
  4.608050e+01    7.253213e+03
  4.617204e+01    7.215064e+03
  4.626358e+01    7.217654e+03
  4.635513e+01    7.222865e+03
  4.644667e+01    7.512066e+03
  4.653821e+01    8.908337e+03
  4.662975e+01    8.434834e+03
  4.672129e+01    7.446705e+03
  4.681283e+01    7.339576e+03
  4.690437e+01    7.350622e+03
  4.699592e+01    7.328997e+03
  4.708746e+01    7.269842e+03
  4.717900e+01    7.219104e+03
  4.727054e+01    7.229664e+03
  4.736208e+01    7.292338e+03
  4.745362e+01    7.622274e+03
  4.754516e+01    8.817824e+03
  4.763671e+01    8.724842e+03
  4.772825e+01    7.878249e+03
  4.781979e+01    7.465751e+03
  4.788844e+01    3.019419e+03

File: wam39b_rampe_1_xrd_000014_integrated.dat
# == pyFAI calibration ==
# Distance Sample to Detector: 0.261615 m
# PONI: 2.023e-01, 2.348e-01 m
# Rotations: -0.026380 0.002005 0.000000 rad
#
# == Fit2d calibration ==
# Distance Sample-beamCenter: 261.707 mm
# Center: x=6119.331, y=5134.776 pix
# Tilt: 1.516 deg  TiltPlanRot: 4.347 deg
#
# Detector Rayonix SX165	 PixelSize= 3.950e-05, 3.950e-05 m
#    Detector has a mask: True
#    Detector has a dark current: False
#    detector has a flat field: False
#
# Wavelength: 1.12713e-10 m
# Mask applied: from detector
# Dark current applied: False
# Flat field applied: False
# Polarization factor: None
# Normalization factor: 1.0
# --> ROCK\\WAM39B_integrated\wam39b_rampe_1_xrd_000014_integrated.dat
#       2th_deg             I
  2.502596e+01    5.056281e+03
  2.511750e+01    2.077595e+04
  2.520905e+01    2.110321e+04
  2.530059e+01    2.132941e+04
  2.539213e+01    2.097254e+04
  2.548367e+01    2.135766e+04
  2.557521e+01    2.226288e+04
  2.566675e+01    2.324568e+04
  2.575829e+01    2.353811e+04
  2.584984e+01    2.281153e+04
  2.594138e+01    2.205318e+04
  2.603292e+01    2.208447e+04
  2.612446e+01    2.267352e+04
  2.621600e+01    2.390928e+04
  2.630754e+01    2.699967e+04
  2.639908e+01    3.484679e+04
  2.649063e+01    2.967033e+04
  2.658217e+01    2.497250e+04
  2.667371e+01    2.408252e+04
  2.676525e+01    2.340062e+04
  2.685679e+01    2.229818e+04
  2.694833e+01    2.093473e+04
  2.703988e+01    1.974174e+04
  2.713142e+01    1.890211e+04
  2.722296e+01    1.827222e+04
  2.731450e+01    1.785556e+04
  2.740604e+01    1.753379e+04
  2.749758e+01    1.740660e+04
  2.758912e+01    1.736947e+04
  2.768067e+01    1.748999e+04
  2.777221e+01    1.784615e+04
  2.786375e+01    1.876298e+04
  2.795529e+01    2.067199e+04
  2.804683e+01    2.382173e+04
  2.813837e+01    1.986534e+04
  2.822991e+01    1.699926e+04
  2.832146e+01    1.594013e+04
  2.841300e+01    1.531554e+04
  2.850454e+01    1.491296e+04
  2.859608e+01    1.461717e+04
  2.868762e+01    1.432474e+04
  2.877916e+01    1.409864e+04
  2.887070e+01    1.387898e+04
  2.896225e+01    1.365580e+04
  2.905379e+01    1.345088e+04
  2.914533e+01    1.326779e+04
  2.923687e+01    1.312993e+04
  2.932841e+01    1.299148e+04
  2.941995e+01    1.294620e+04
  2.951149e+01    1.332835e+04
  2.960304e+01    1.455066e+04
  2.969458e+01    1.322619e+04
  2.978612e+01    1.246355e+04
  2.987766e+01    1.228094e+04
  2.996920e+01    1.221524e+04
  3.006074e+01    1.221410e+04
  3.015228e+01    1.224745e+04
  3.024383e+01    1.232535e+04
  3.033537e+01    1.247272e+04
  3.042691e+01    1.275767e+04
  3.051845e+01    1.317513e+04
  3.060999e+01    1.383214e+04
  3.070153e+01    1.482336e+04
  3.079308e+01    1.616512e+04
  3.088462e+01    1.784298e+04
  3.097616e+01    2.179476e+04
  3.106770e+01    3.472957e+04
  3.115924e+01    2.601968e+04
  3.125078e+01    1.630667e+04
  3.134232e+01    1.386672e+04
  3.143387e+01    1.283084e+04
  3.152541e+01    1.222604e+04
  3.161695e+01    1.183440e+04
  3.170849e+01    1.156004e+04
  3.180003e+01    1.133518e+04
  3.189157e+01    1.116471e+04
  3.198311e+01    1.102047e+04
  3.207466e+01    1.089207e+04
  3.216620e+01    1.077473e+04
  3.225774e+01    1.066766e+04
  3.234928e+01    1.067877e+04
  3.244082e+01    1.133313e+04
  3.253236e+01    1.197014e+04
  3.262390e+01    1.059149e+04
  3.271545e+01    1.016895e+04
  3.280699e+01    1.002233e+04
  3.289853e+01    9.937541e+03
  3.299007e+01    9.851905e+03
  3.308161e+01    9.792725e+03
  3.317315e+01    9.759265e+03
  3.326469e+01    9.739884e+03
  3.335624e+01    9.734152e+03
  3.344778e+01    9.735389e+03
  3.353932e+01    9.782369e+03
  3.363086e+01    1.001789e+04
  3.372240e+01    1.108392e+04
  3.381394e+01    1.782224e+04
  3.390549e+01    2.230636e+04
  3.399703e+01    1.245155e+04
  3.408857e+01    1.017277e+04
  3.418011e+01    9.743069e+03
  3.427165e+01    9.597898e+03
  3.436319e+01    9.485897e+03
  3.445473e+01    9.345885e+03
  3.454628e+01    9.226348e+03
  3.463782e+01    9.146326e+03
  3.472936e+01    9.106283e+03
  3.482090e+01    9.102854e+03
  3.491244e+01    9.165874e+03
  3.500398e+01    9.280353e+03
  3.509552e+01    9.363069e+03
  3.518707e+01    9.263868e+03
  3.527861e+01    9.045052e+03
  3.537015e+01    8.858871e+03
  3.546169e+01    8.727178e+03
  3.555323e+01    8.627584e+03
  3.564477e+01    8.560506e+03
  3.573631e+01    8.517964e+03
  3.582786e+01    8.496080e+03
  3.591940e+01    8.485334e+03
  3.601094e+01    8.492173e+03
  3.610248e+01    8.527896e+03
  3.619402e+01    8.610326e+03
  3.628556e+01    8.857183e+03
  3.637710e+01    1.032785e+04
  3.646865e+01    1.411501e+04
  3.656019e+01    1.070236e+04
  3.665173e+01    8.984127e+03
  3.674327e+01    8.735799e+03
  3.683481e+01    8.693562e+03
  3.692635e+01    8.701321e+03
  3.701790e+01    8.753277e+03
  3.710944e+01    8.867962e+03
  3.720098e+01    9.066907e+03
  3.729252e+01    9.350052e+03
  3.738406e+01    9.908075e+03
  3.747560e+01    1.136301e+04
  3.756714e+01    1.766413e+04
  3.765869e+01    5.576186e+04
  3.775023e+01    6.360237e+04
  3.784177e+01    2.029308e+04
  3.793331e+01    1.189698e+04
  3.802485e+01    1.008506e+04
  3.811639e+01    9.461421e+03
  3.820793e+01    9.148997e+03
  3.829948e+01    9.010572e+03
  3.839102e+01    8.929783e+03
  3.848256e+01    8.864928e+03
  3.857410e+01    8.810352e+03
  3.866564e+01    8.803760e+03
  3.875718e+01    8.947819e+03
  3.884872e+01    1.009964e+04
  3.894027e+01    1.101328e+04
  3.903181e+01    9.176869e+03
  3.912335e+01    8.719136e+03
  3.921489e+01    8.614441e+03
  3.930643e+01    8.576834e+03
  3.939797e+01    8.552650e+03
  3.948951e+01    8.525586e+03
  3.958106e+01    8.504955e+03
  3.967260e+01    8.479812e+03
  3.976414e+01    8.462420e+03
  3.985568e+01    8.458577e+03
  3.994722e+01    8.540546e+03
  4.003876e+01    8.936071e+03
  4.013031e+01    9.018875e+03
  4.022185e+01    8.680170e+03
  4.031339e+01    8.724336e+03
  4.040493e+01    8.829025e+03
  4.049647e+01    8.834611e+03
  4.058801e+01    8.708128e+03
  4.067955e+01    8.561402e+03
  4.077110e+01    8.463803e+03
  4.086264e+01    8.434417e+03
  4.095418e+01    8.490714e+03
  4.104572e+01    8.809134e+03
  4.113726e+01    1.073827e+04
  4.122880e+01    1.557957e+04
  4.132034e+01    1.115898e+04
  4.141189e+01    9.051854e+03
  4.150343e+01    8.733663e+03
  4.159497e+01    8.580027e+03
  4.168651e+01    8.491947e+03
  4.177805e+01    8.422055e+03
  4.186959e+01    8.399731e+03
  4.196113e+01    8.401657e+03
  4.205268e+01    8.413900e+03
  4.214422e+01    8.463636e+03
  4.223576e+01    8.723414e+03
  4.232730e+01    9.795464e+03
  4.241884e+01    9.115955e+03
  4.251038e+01    8.363559e+03
  4.260192e+01    8.195646e+03
  4.269347e+01    8.134294e+03
  4.278501e+01    8.081677e+03
  4.287655e+01    8.064326e+03
  4.296809e+01    8.072899e+03
  4.305963e+01    8.100473e+03
  4.315117e+01    8.188259e+03
  4.324272e+01    8.436794e+03
  4.333426e+01    9.657556e+03
  4.342580e+01    1.411059e+04
  4.351734e+01    1.133780e+04
  4.360888e+01    8.971313e+03
  4.370042e+01    8.797053e+03
  4.379196e+01    8.995696e+03
  4.388351e+01    9.287620e+03
  4.397505e+01    9.516725e+03
  4.406659e+01    9.838255e+03
  4.415813e+01    1.034659e+04
  4.424967e+01    1.104620e+04
  4.434121e+01    1.262467e+04
  4.443275e+01    2.121216e+04
  4.452430e+01    3.519790e+04
  4.461584e+01    1.748881e+04
  4.470738e+01    1.099367e+04
  4.479892e+01    9.639775e+03
  4.489046e+01    9.091033e+03
  4.498200e+01    8.789935e+03
  4.507354e+01    8.575553e+03
  4.516509e+01    8.454112e+03
  4.525663e+01    8.421336e+03
  4.534817e+01    8.568341e+03
  4.543971e+01    9.542297e+03
  4.553125e+01    1.441171e+04
  4.562279e+01    1.295060e+04
  4.571433e+01    9.102541e+03
  4.580588e+01    8.399360e+03
  4.589742e+01    8.220421e+03
  4.598896e+01    8.155875e+03
  4.608050e+01    8.101991e+03
  4.617204e+01    8.057243e+03
  4.626358e+01    8.047907e+03
  4.635513e+01    8.048374e+03
  4.644667e+01    8.228107e+03
  4.653821e+01    9.396704e+03
  4.662975e+01    9.890506e+03
  4.672129e+01    8.458393e+03
  4.681283e+01    8.200009e+03
  4.690437e+01    8.191736e+03
  4.699592e+01    8.212181e+03
  4.708746e+01    8.153231e+03
  4.717900e+01    8.077308e+03
  4.727054e+01    8.063856e+03
  4.736208e+01    8.127186e+03
  4.745362e+01    8.386591e+03
  4.754516e+01    9.437894e+03
  4.763671e+01    1.008101e+04
  4.772825e+01    8.906973e+03
  4.781979e+01    8.319718e+03
  4.788844e+01    3.372451e+03