Folder: heo-xas-xrd/Output/ROCK_XRD/WAM39B_integrated/rampe1 (part 11)

File: wam39b_rampe_1_xrd_000030_integrated.dat
# == pyFAI calibration ==
# Distance Sample to Detector: 0.261615 m
# PONI: 2.023e-01, 2.348e-01 m
# Rotations: -0.026380 0.002005 0.000000 rad
#
# == Fit2d calibration ==
# Distance Sample-beamCenter: 261.707 mm
# Center: x=6119.331, y=5134.776 pix
# Tilt: 1.516 deg  TiltPlanRot: 4.347 deg
#
# Detector Rayonix SX165	 PixelSize= 3.950e-05, 3.950e-05 m
#    Detector has a mask: True
#    Detector has a dark current: False
#    detector has a flat field: False
#
# Wavelength: 1.12713e-10 m
# Mask applied: from detector
# Dark current applied: False
# Flat field applied: False
# Polarization factor: None
# Normalization factor: 1.0
# --> ROCK\\WAM39B_integrated\wam39b_rampe_1_xrd_000030_integrated.dat
#       2th_deg             I
  2.502596e+01    4.101721e+03
  2.511750e+01    1.685640e+04
  2.520905e+01    1.711483e+04
  2.530059e+01    1.719812e+04
  2.539213e+01    1.669663e+04
  2.548367e+01    1.659281e+04
  2.557521e+01    1.650773e+04
  2.566675e+01    1.646189e+04
  2.575829e+01    1.629496e+04
  2.584984e+01    1.619913e+04
  2.594138e+01    1.635399e+04
  2.603292e+01    1.693237e+04
  2.612446e+01    1.894064e+04
  2.621600e+01    2.926946e+04
  2.630754e+01    5.371371e+04
  2.639908e+01    2.723847e+04
  2.649063e+01    1.795942e+04
  2.658217e+01    1.598435e+04
  2.667371e+01    1.529521e+04
  2.676525e+01    1.492389e+04
  2.685679e+01    1.467121e+04
  2.694833e+01    1.445528e+04
  2.703988e+01    1.426894e+04
  2.713142e+01    1.412641e+04
  2.722296e+01    1.393914e+04
  2.731450e+01    1.379071e+04
  2.740604e+01    1.362837e+04
  2.749758e+01    1.353112e+04
  2.758912e+01    1.346724e+04
  2.768067e+01    1.344822e+04
  2.777221e+01    1.368404e+04
  2.786375e+01    1.565517e+04
  2.795529e+01    1.668549e+04
  2.804683e+01    1.362207e+04
  2.813837e+01    1.284231e+04
  2.822991e+01    1.252262e+04
  2.832146e+01    1.235554e+04
  2.841300e+01    1.218161e+04
  2.850454e+01    1.203713e+04
  2.859608e+01    1.188131e+04
  2.868762e+01    1.172217e+04
  2.877916e+01    1.156649e+04
  2.887070e+01    1.140225e+04
  2.896225e+01    1.123721e+04
  2.905379e+01    1.108116e+04
  2.914533e+01    1.093684e+04
  2.923687e+01    1.084474e+04
  2.932841e+01    1.085863e+04
  2.941995e+01    1.160101e+04
  2.951149e+01    1.159129e+04
  2.960304e+01    1.048395e+04
  2.969458e+01    1.019517e+04
  2.978612e+01    1.006783e+04
  2.987766e+01    1.000638e+04
  2.996920e+01    1.000185e+04
  3.006074e+01    1.007571e+04
  3.015228e+01    1.026581e+04
  3.024383e+01    1.092216e+04
  3.033537e+01    1.431112e+04
  3.042691e+01    3.681221e+04
  3.051845e+01    4.524009e+04
  3.060999e+01    1.559279e+04
  3.070153e+01    1.137758e+04
  3.079308e+01    1.152855e+04
  3.088462e+01    1.860717e+04
  3.097616e+01    2.251938e+04
  3.106770e+01    1.179429e+04
  3.115924e+01    9.669882e+03
  3.125078e+01    9.205729e+03
  3.134232e+01    8.996666e+03
  3.143387e+01    8.871812e+03
  3.152541e+01    8.767676e+03
  3.161695e+01    8.680843e+03
  3.170849e+01    8.606029e+03
  3.180003e+01    8.538463e+03
  3.189157e+01    8.475604e+03
  3.198311e+01    8.423478e+03
  3.207466e+01    8.381129e+03
  3.216620e+01    8.364296e+03
  3.225774e+01    8.620362e+03
  3.234928e+01    9.563236e+03
  3.244082e+01    8.668459e+03
  3.253236e+01    8.185171e+03
  3.262390e+01    8.072758e+03
  3.271545e+01    8.010078e+03
  3.280699e+01    7.955331e+03
  3.289853e+01    7.913495e+03
  3.299007e+01    7.868186e+03
  3.308161e+01    7.838515e+03
  3.317315e+01    7.793955e+03
  3.326469e+01    7.774540e+03
  3.335624e+01    7.793622e+03
  3.344778e+01    7.876095e+03
  3.353932e+01    8.286675e+03
  3.363086e+01    1.144474e+04
  3.372240e+01    1.863253e+04
  3.381394e+01    1.070587e+04
  3.390549e+01    8.047809e+03
  3.399703e+01    7.605024e+03
  3.408857e+01    7.446892e+03
  3.418011e+01    7.357110e+03
  3.427165e+01    7.297168e+03
  3.436319e+01    7.249014e+03
  3.445473e+01    7.202122e+03
  3.454628e+01    7.150343e+03
  3.463782e+01    7.104000e+03
  3.472936e+01    7.072396e+03
  3.482090e+01    7.024000e+03
  3.491244e+01    6.992916e+03
  3.500398e+01    6.952851e+03
  3.509552e+01    6.926562e+03
  3.518707e+01    6.894469e+03
  3.527861e+01    6.862183e+03
  3.537015e+01    6.825662e+03
  3.546169e+01    6.795165e+03
  3.555323e+01    6.766550e+03
  3.564477e+01    6.742019e+03
  3.573631e+01    6.734480e+03
  3.582786e+01    6.733156e+03
  3.591940e+01    6.742643e+03
  3.601094e+01    6.780929e+03
  3.610248e+01    6.909779e+03
  3.619402e+01    7.731390e+03
  3.628556e+01    1.093208e+04
  3.637710e+01    8.604484e+03
  3.646865e+01    7.076184e+03
  3.656019e+01    6.901458e+03
  3.665173e+01    6.862288e+03
  3.674327e+01    6.877835e+03
  3.683481e+01    6.907210e+03
  3.692635e+01    6.969257e+03
  3.701790e+01    7.068051e+03
  3.710944e+01    7.230736e+03
  3.720098e+01    7.562620e+03
  3.729252e+01    8.378129e+03
  3.738406e+01    1.210647e+04
  3.747560e+01    3.943407e+04
  3.756714e+01    5.075621e+04
  3.765869e+01    1.491161e+04
  3.775023e+01    8.873091e+03
  3.784177e+01    7.766527e+03
  3.793331e+01    7.383868e+03
  3.802485e+01    7.175587e+03
  3.811639e+01    7.074012e+03
  3.820793e+01    7.009669e+03
  3.829948e+01    6.971985e+03
  3.839102e+01    6.950200e+03
  3.848256e+01    6.962757e+03
  3.857410e+01    7.072398e+03
  3.866564e+01    7.958465e+03
  3.875718e+01    8.650006e+03
  3.884872e+01    7.227043e+03
  3.894027e+01    6.948270e+03
  3.903181e+01    6.880400e+03
  3.912335e+01    6.853467e+03
  3.921489e+01    6.830738e+03
  3.930643e+01    6.820584e+03
  3.939797e+01    6.795139e+03
  3.948951e+01    6.759989e+03
  3.958106e+01    6.728396e+03
  3.967260e+01    6.711777e+03
  3.976414e+01    6.732712e+03
  3.985568e+01    7.040902e+03
  3.994722e+01    6.983927e+03
  4.003876e+01    6.673609e+03
  4.013031e+01    6.626267e+03
  4.022185e+01    6.592135e+03
  4.031339e+01    6.584570e+03
  4.040493e+01    6.569913e+03
  4.049647e+01    6.562565e+03
  4.058801e+01    6.555367e+03
  4.067955e+01    6.572898e+03
  4.077110e+01    6.628778e+03
  4.086264e+01    6.856837e+03
  4.095418e+01    8.686996e+03
  4.104572e+01    1.194228e+04
  4.113726e+01    7.897992e+03
  4.122880e+01    6.732121e+03
  4.132034e+01    6.553014e+03
  4.141189e+01    6.491210e+03
  4.150343e+01    6.477979e+03
  4.159497e+01    6.465326e+03
  4.168651e+01    6.469909e+03
  4.177805e+01    6.454440e+03
  4.186959e+01    6.443534e+03
  4.196113e+01    6.477810e+03
  4.205268e+01    6.757152e+03
  4.214422e+01    7.580238e+03
  4.223576e+01    6.802436e+03
  4.232730e+01    6.467111e+03
  4.241884e+01    6.426184e+03
  4.251038e+01    6.407707e+03
  4.260192e+01    6.401660e+03
  4.269347e+01    6.406178e+03
  4.278501e+01    6.425597e+03
  4.287655e+01    6.462240e+03
  4.296809e+01    6.555862e+03
  4.305963e+01    6.751418e+03
  4.315117e+01    8.199608e+03
  4.324272e+01    1.118225e+04
  4.333426e+01    8.027771e+03
  4.342580e+01    7.472435e+03
  4.351734e+01    1.036173e+04
  4.360888e+01    2.375402e+04
  4.370042e+01    1.325279e+04
  4.379196e+01    7.634654e+03
  4.388351e+01    6.882755e+03
  4.397505e+01    6.786159e+03
  4.406659e+01    7.021469e+03
  4.415813e+01    8.533822e+03
  4.424967e+01    1.950967e+04
  4.434121e+01    2.204150e+04
  4.443275e+01    9.118660e+03
  4.452430e+01    7.012434e+03
  4.461584e+01    6.583824e+03
  4.470738e+01    6.412026e+03
  4.479892e+01    6.342815e+03
  4.489046e+01    6.314507e+03
  4.498200e+01    6.318833e+03
  4.507354e+01    6.343827e+03
  4.516509e+01    6.544162e+03
  4.525663e+01    7.987999e+03
  4.534817e+01    1.163538e+04
  4.543971e+01    7.916253e+03
  4.553125e+01    6.464483e+03
  4.562279e+01    6.240045e+03
  4.571433e+01    6.155328e+03
  4.580588e+01    6.122085e+03
  4.589742e+01    6.095190e+03
  4.598896e+01    6.066435e+03
  4.608050e+01    6.043174e+03
  4.617204e+01    6.093015e+03
  4.626358e+01    6.396840e+03
  4.635513e+01    7.686834e+03
  4.644667e+01    6.845629e+03
  4.653821e+01    6.167652e+03
  4.662975e+01    6.075790e+03
  4.672129e+01    6.056149e+03
  4.681283e+01    6.084277e+03
  4.690437e+01    6.101517e+03
  4.699592e+01    6.139100e+03
  4.708746e+01    6.206425e+03
  4.717900e+01    6.284663e+03
  4.727054e+01    6.558822e+03
  4.736208e+01    7.473776e+03
  4.745362e+01    7.039291e+03
  4.754516e+01    6.828181e+03
  4.763671e+01    6.963298e+03
  4.772825e+01    6.814782e+03
  4.781979e+01    6.487609e+03
  4.788844e+01    2.605653e+03

File: wam39b_rampe_1_xrd_000032_integrated.dat
# == pyFAI calibration ==
# Distance Sample to Detector: 0.261615 m
# PONI: 2.023e-01, 2.348e-01 m
# Rotations: -0.026380 0.002005 0.000000 rad
#
# == Fit2d calibration ==
# Distance Sample-beamCenter: 261.707 mm
# Center: x=6119.331, y=5134.776 pix
# Tilt: 1.516 deg  TiltPlanRot: 4.347 deg
#
# Detector Rayonix SX165	 PixelSize= 3.950e-05, 3.950e-05 m
#    Detector has a mask: True
#    Detector has a dark current: False
#    detector has a flat field: False
#
# Wavelength: 1.12713e-10 m
# Mask applied: from detector
# Dark current applied: False
# Flat field applied: False
# Polarization factor: None
# Normalization factor: 1.0
# --> ROCK\\WAM39B_integrated\wam39b_rampe_1_xrd_000032_integrated.dat
#       2th_deg             I
  2.502596e+01    4.618320e+03
  2.511750e+01    1.892903e+04
  2.520905e+01    1.921475e+04
  2.530059e+01    1.929290e+04
  2.539213e+01    1.875389e+04
  2.548367e+01    1.861545e+04
  2.557521e+01    1.851120e+04
  2.566675e+01    1.844841e+04
  2.575829e+01    1.825325e+04
  2.584984e+01    1.811822e+04
  2.594138e+01    1.824008e+04
  2.603292e+01    1.876003e+04
  2.612446e+01    2.054318e+04
  2.621600e+01    3.022248e+04
  2.630754e+01    5.869319e+04
  2.639908e+01    3.176872e+04
  2.649063e+01    2.017197e+04
  2.658217e+01    1.788296e+04
  2.667371e+01    1.711898e+04
  2.676525e+01    1.671353e+04
  2.685679e+01    1.643297e+04
  2.694833e+01    1.618958e+04
  2.703988e+01    1.598776e+04
  2.713142e+01    1.583972e+04
  2.722296e+01    1.561205e+04
  2.731450e+01    1.546163e+04
  2.740604e+01    1.527086e+04
  2.749758e+01    1.516481e+04
  2.758912e+01    1.506895e+04
  2.768067e+01    1.502667e+04
  2.777221e+01    1.518490e+04
  2.786375e+01    1.703152e+04
  2.795529e+01    1.909393e+04
  2.804683e+01    1.537826e+04
  2.813837e+01    1.438228e+04
  2.822991e+01    1.403052e+04
  2.832146e+01    1.384138e+04
  2.841300e+01    1.363738e+04
  2.850454e+01    1.346311e+04
  2.859608e+01    1.331067e+04
  2.868762e+01    1.311652e+04
  2.877916e+01    1.294128e+04
  2.887070e+01    1.275624e+04
  2.896225e+01    1.256711e+04
  2.905379e+01    1.239429e+04
  2.914533e+01    1.221793e+04
  2.923687e+01    1.210205e+04
  2.932841e+01    1.207015e+04
  2.941995e+01    1.275675e+04
  2.951149e+01    1.312481e+04
  2.960304e+01    1.174814e+04
  2.969458e+01    1.138398e+04
  2.978612e+01    1.122995e+04
  2.987766e+01    1.113327e+04
  2.996920e+01    1.112041e+04
  3.006074e+01    1.118261e+04
  3.015228e+01    1.134288e+04
  3.024383e+01    1.191450e+04
  3.033537e+01    1.489240e+04
  3.042691e+01    3.872711e+04
  3.051845e+01    5.420888e+04
  3.060999e+01    1.778648e+04
  3.070153e+01    1.251208e+04
  3.079308e+01    1.235215e+04
  3.088462e+01    1.866523e+04
  3.097616e+01    2.666989e+04
  3.106770e+01    1.370209e+04
  3.115924e+01    1.082398e+04
  3.125078e+01    1.025804e+04
  3.134232e+01    1.002061e+04
  3.143387e+01    9.886531e+03
  3.152541e+01    9.766148e+03
  3.161695e+01    9.672927e+03
  3.170849e+01    9.579521e+03
  3.180003e+01    9.507982e+03
  3.189157e+01    9.447948e+03
  3.198311e+01    9.389531e+03
  3.207466e+01    9.333354e+03
  3.216620e+01    9.307626e+03
  3.225774e+01    9.487622e+03
  3.234928e+01    1.058395e+04
  3.244082e+01    9.802114e+03
  3.253236e+01    9.134540e+03
  3.262390e+01    8.996065e+03
  3.271545e+01    8.918305e+03
  3.280699e+01    8.858125e+03
  3.289853e+01    8.806556e+03
  3.299007e+01    8.755007e+03
  3.308161e+01    8.711778e+03
  3.317315e+01    8.674279e+03
  3.326469e+01    8.649837e+03
  3.335624e+01    8.654262e+03
  3.344778e+01    8.721139e+03
  3.353932e+01    9.034064e+03
  3.363086e+01    1.157110e+04
  3.372240e+01    2.086483e+04
  3.381394e+01    1.283754e+04
  3.390549e+01    9.030081e+03
  3.399703e+01    8.469045e+03
  3.408857e+01    8.282114e+03
  3.418011e+01    8.187176e+03
  3.427165e+01    8.113602e+03
  3.436319e+01    8.054283e+03
  3.445473e+01    7.999211e+03
  3.454628e+01    7.946924e+03
  3.463782e+01    7.893803e+03
  3.472936e+01    7.854997e+03
  3.482090e+01    7.813212e+03
  3.491244e+01    7.768398e+03
  3.500398e+01    7.719858e+03
  3.509552e+01    7.695032e+03
  3.518707e+01    7.659416e+03
  3.527861e+01    7.619780e+03
  3.537015e+01    7.583998e+03
  3.546169e+01    7.548687e+03
  3.555323e+01    7.510165e+03
  3.564477e+01    7.484330e+03
  3.573631e+01    7.469324e+03
  3.582786e+01    7.458193e+03
  3.591940e+01    7.471930e+03
  3.601094e+01    7.507488e+03
  3.610248e+01    7.619480e+03
  3.619402e+01    8.241960e+03
  3.628556e+01    1.178861e+04
  3.637710e+01    1.011558e+04
  3.646865e+01    7.907011e+03
  3.656019e+01    7.653828e+03
  3.665173e+01    7.605459e+03
  3.674327e+01    7.609880e+03
  3.683481e+01    7.653476e+03
  3.692635e+01    7.710307e+03
  3.701790e+01    7.805647e+03
  3.710944e+01    7.950912e+03
  3.720098e+01    8.248872e+03
  3.729252e+01    8.945192e+03
  3.738406e+01    1.177594e+04
  3.747560e+01    3.506678e+04
  3.756714e+01    6.333277e+04
  3.765869e+01    1.898416e+04
  3.775023e+01    1.003528e+04
  3.784177e+01    8.635072e+03
  3.793331e+01    8.191027e+03
  3.802485e+01    7.950838e+03
  3.811639e+01    7.850857e+03
  3.820793e+01    7.770748e+03
  3.829948e+01    7.729513e+03
  3.839102e+01    7.697273e+03
  3.848256e+01    7.705947e+03
  3.857410e+01    7.797270e+03
  3.866564e+01    8.507308e+03
  3.875718e+01    9.813061e+03
  3.884872e+01    8.133353e+03
  3.894027e+01    7.714018e+03
  3.903181e+01    7.632312e+03
  3.912335e+01    7.605055e+03
  3.921489e+01    7.579832e+03
  3.930643e+01    7.561264e+03
  3.939797e+01    7.543390e+03
  3.948951e+01    7.491114e+03
  3.958106e+01    7.468893e+03
  3.967260e+01    7.440104e+03
  3.976414e+01    7.447105e+03
  3.985568e+01    7.719575e+03
  3.994722e+01    7.838549e+03
  4.003876e+01    7.424711e+03
  4.013031e+01    7.361961e+03
  4.022185e+01    7.327791e+03
  4.031339e+01    7.310323e+03
  4.040493e+01    7.297729e+03
  4.049647e+01    7.280109e+03
  4.058801e+01    7.271454e+03
  4.067955e+01    7.278076e+03
  4.077110e+01    7.324086e+03
  4.086264e+01    7.497553e+03
  4.095418e+01    8.859378e+03
  4.104572e+01    1.346489e+04
  4.113726e+01    9.310380e+03
  4.122880e+01    7.510764e+03
  4.132034e+01    7.271446e+03
  4.141189e+01    7.208368e+03
  4.150343e+01    7.169920e+03
  4.159497e+01    7.165258e+03
  4.168651e+01    7.164214e+03
  4.177805e+01    7.145837e+03
  4.186959e+01    7.138911e+03
  4.196113e+01    7.157355e+03
  4.205268e+01    7.355224e+03
  4.214422e+01    8.350115e+03
  4.223576e+01    7.708160e+03
  4.232730e+01    7.180426e+03
  4.241884e+01    7.113900e+03
  4.251038e+01    7.104003e+03
  4.260192e+01    7.094164e+03
  4.269347e+01    7.105039e+03
  4.278501e+01    7.113216e+03
  4.287655e+01    7.140917e+03
  4.296809e+01    7.224413e+03
  4.305963e+01    7.378455e+03
  4.315117e+01    8.420585e+03
  4.324272e+01    1.241936e+04
  4.333426e+01    9.359478e+03
  4.342580e+01    8.106889e+03
  4.351734e+01    1.042491e+04
  4.360888e+01    2.583222e+04
  4.370042e+01    1.662128e+04
  4.379196e+01    8.518395e+03
  4.388351e+01    7.579648e+03
  4.397505e+01    7.437650e+03
  4.406659e+01    7.613087e+03
  4.415813e+01    8.666183e+03
  4.424967e+01    1.769627e+04
  4.434121e+01    2.746846e+04
  4.443275e+01    1.116410e+04
  4.452430e+01    7.868307e+03
  4.461584e+01    7.315833e+03
  4.470738e+01    7.114052e+03
  4.479892e+01    7.027314e+03
  4.489046e+01    6.975920e+03
  4.498200e+01    6.975375e+03
  4.507354e+01    7.002125e+03
  4.516509e+01    7.139277e+03
  4.525663e+01    8.152652e+03
  4.534817e+01    1.279749e+04
  4.543971e+01    9.556871e+03
  4.553125e+01    7.237429e+03
  4.562279e+01    6.913815e+03
  4.571433e+01    6.826882e+03
  4.580588e+01    6.780438e+03
  4.589742e+01    6.750472e+03
  4.598896e+01    6.724730e+03
  4.608050e+01    6.697062e+03
  4.617204e+01    6.730304e+03
  4.626358e+01    6.937351e+03
  4.635513e+01    8.288385e+03
  4.644667e+01    7.900509e+03
  4.653821e+01    6.878833e+03
  4.662975e+01    6.723602e+03
  4.672129e+01    6.719658e+03
  4.681283e+01    6.753785e+03
  4.690437e+01    6.765603e+03
  4.699592e+01    6.800278e+03
  4.708746e+01    6.881563e+03
  4.717900e+01    6.944671e+03
  4.727054e+01    7.160344e+03
  4.736208e+01    8.141856e+03
  4.745362e+01    8.048471e+03
  4.754516e+01    7.595395e+03
  4.763671e+01    7.735381e+03
  4.772825e+01    7.591232e+03
  4.781979e+01    7.199883e+03
  4.788844e+01    2.895332e+03

File: wam39b_rampe_1_xrd_000033_integrated.dat
# == pyFAI calibration ==
# Distance Sample to Detector: 0.261615 m
# PONI: 2.023e-01, 2.348e-01 m
# Rotations: -0.026380 0.002005 0.000000 rad
#
# == Fit2d calibration ==
# Distance Sample-beamCenter: 261.707 mm
# Center: x=6119.331, y=5134.776 pix
# Tilt: 1.516 deg  TiltPlanRot: 4.347 deg
#
# Detector Rayonix SX165	 PixelSize= 3.950e-05, 3.950e-05 m
#    Detector has a mask: True
#    Detector has a dark current: False
#    detector has a flat field: False
#
# Wavelength: 1.12713e-10 m
# Mask applied: from detector
# Dark current applied: False
# Flat field applied: False
# Polarization factor: None
# Normalization factor: 1.0
# --> ROCK\\WAM39B_integrated\wam39b_rampe_1_xrd_000033_integrated.dat
#       2th_deg             I
  2.502596e+01    4.374205e+03
  2.511750e+01    1.798279e+04
  2.520905e+01    1.824886e+04
  2.530059e+01    1.833137e+04
  2.539213e+01    1.780023e+04
  2.548367e+01    1.768415e+04
  2.557521e+01    1.757304e+04
  2.566675e+01    1.752480e+04
  2.575829e+01    1.734158e+04
  2.584984e+01    1.719726e+04
  2.594138e+01    1.730083e+04
  2.603292e+01    1.783681e+04
  2.612446e+01    1.964185e+04
  2.621600e+01    2.968652e+04
  2.630754e+01    5.849304e+04
  2.639908e+01    2.917248e+04
  2.649063e+01    1.898655e+04
  2.658217e+01    1.693709e+04
  2.667371e+01    1.622632e+04
  2.676525e+01    1.587446e+04
  2.685679e+01    1.559761e+04
  2.694833e+01    1.537148e+04
  2.703988e+01    1.518940e+04
  2.713142e+01    1.502398e+04
  2.722296e+01    1.483409e+04
  2.731450e+01    1.468937e+04
  2.740604e+01    1.450386e+04
  2.749758e+01    1.440560e+04
  2.758912e+01    1.431531e+04
  2.768067e+01    1.427767e+04
  2.777221e+01    1.444247e+04
  2.786375e+01    1.630810e+04
  2.795529e+01    1.806671e+04
  2.804683e+01    1.455579e+04
  2.813837e+01    1.365169e+04
  2.822991e+01    1.332506e+04
  2.832146e+01    1.313240e+04
  2.841300e+01    1.295089e+04
  2.850454e+01    1.278449e+04
  2.859608e+01    1.263128e+04
  2.868762e+01    1.243645e+04
  2.877916e+01    1.227608e+04
  2.887070e+01    1.211033e+04
  2.896225e+01    1.193977e+04
  2.905379e+01    1.176048e+04
  2.914533e+01    1.159607e+04
  2.923687e+01    1.148576e+04
  2.932841e+01    1.146347e+04
  2.941995e+01    1.217592e+04
  2.951149e+01    1.243055e+04
  2.960304e+01    1.113042e+04
  2.969458e+01    1.079292e+04
  2.978612e+01    1.066805e+04
  2.987766e+01    1.057159e+04
  2.996920e+01    1.054474e+04
  3.006074e+01    1.060407e+04
  3.015228e+01    1.077423e+04
  3.024383e+01    1.133142e+04
  3.033537e+01    1.434227e+04
  3.042691e+01    3.851338e+04
  3.051845e+01    5.065522e+04
  3.060999e+01    1.628085e+04
  3.070153e+01    1.176028e+04
  3.079308e+01    1.173685e+04
  3.088462e+01    1.824600e+04
  3.097616e+01    2.504798e+04
  3.106770e+01    1.274411e+04
  3.115924e+01    1.022546e+04
  3.125078e+01    9.730931e+03
  3.134232e+01    9.493073e+03
  3.143387e+01    9.376817e+03
  3.152541e+01    9.270746e+03
  3.161695e+01    9.175633e+03
  3.170849e+01    9.096908e+03
  3.180003e+01    9.025484e+03
  3.189157e+01    8.962406e+03
  3.198311e+01    8.910005e+03
  3.207466e+01    8.858534e+03
  3.216620e+01    8.825090e+03
  3.225774e+01    9.030996e+03
  3.234928e+01    1.009956e+04
  3.244082e+01    9.249579e+03
  3.253236e+01    8.663425e+03
  3.262390e+01    8.532831e+03
  3.271545e+01    8.459353e+03
  3.280699e+01    8.404838e+03
  3.289853e+01    8.365752e+03
  3.299007e+01    8.301124e+03
  3.308161e+01    8.263185e+03
  3.317315e+01    8.233343e+03
  3.326469e+01    8.211079e+03
  3.335624e+01    8.214752e+03
  3.344778e+01    8.280022e+03
  3.353932e+01    8.599654e+03
  3.363086e+01    1.124583e+04
  3.372240e+01    2.002600e+04
  3.381394e+01    1.183619e+04
  3.390549e+01    8.515590e+03
  3.399703e+01    8.027757e+03
  3.408857e+01    7.847772e+03
  3.418011e+01    7.758502e+03
  3.427165e+01    7.699810e+03
  3.436319e+01    7.645812e+03
  3.445473e+01    7.590080e+03
  3.454628e+01    7.542125e+03
  3.463782e+01    7.495000e+03
  3.472936e+01    7.464066e+03
  3.482090e+01    7.413841e+03
  3.491244e+01    7.369982e+03
  3.500398e+01    7.329520e+03
  3.509552e+01    7.300127e+03
  3.518707e+01    7.274694e+03
  3.527861e+01    7.239388e+03
  3.537015e+01    7.204054e+03
  3.546169e+01    7.160074e+03
  3.555323e+01    7.137073e+03
  3.564477e+01    7.099339e+03
  3.573631e+01    7.091081e+03
  3.582786e+01    7.083108e+03
  3.591940e+01    7.094017e+03
  3.601094e+01    7.125688e+03
  3.610248e+01    7.244463e+03
  3.619402e+01    7.884256e+03
  3.628556e+01    1.137558e+04
  3.637710e+01    9.419590e+03
  3.646865e+01    7.471479e+03
  3.656019e+01    7.260498e+03
  3.665173e+01    7.223963e+03
  3.674327e+01    7.226336e+03
  3.683481e+01    7.262074e+03
  3.692635e+01    7.320919e+03
  3.701790e+01    7.411532e+03
  3.710944e+01    7.553007e+03
  3.720098e+01    7.846579e+03
  3.729252e+01    8.533750e+03
  3.738406e+01    1.141319e+04
  3.747560e+01    3.569612e+04
  3.756714e+01    5.891475e+04
  3.765869e+01    1.694937e+04
  3.775023e+01    9.382408e+03
  3.784177e+01    8.163998e+03
  3.793331e+01    7.760184e+03
  3.802485e+01    7.549223e+03
  3.811639e+01    7.444757e+03
  3.820793e+01    7.372709e+03
  3.829948e+01    7.343410e+03
  3.839102e+01    7.322025e+03
  3.848256e+01    7.328193e+03
  3.857410e+01    7.411907e+03
  3.866564e+01    8.159261e+03
  3.875718e+01    9.291140e+03
  3.884872e+01    7.677012e+03
  3.894027e+01    7.321265e+03
  3.903181e+01    7.252465e+03
  3.912335e+01    7.227103e+03
  3.921489e+01    7.198229e+03
  3.930643e+01    7.186161e+03
  3.939797e+01    7.160888e+03
  3.948951e+01    7.116908e+03
  3.958106e+01    7.090323e+03
  3.967260e+01    7.069007e+03
  3.976414e+01    7.072309e+03
  3.985568e+01    7.371838e+03
  3.994722e+01    7.428275e+03
  4.003876e+01    7.040874e+03
  4.013031e+01    6.987979e+03
  4.022185e+01    6.958823e+03
  4.031339e+01    6.941150e+03
  4.040493e+01    6.927413e+03
  4.049647e+01    6.914902e+03
  4.058801e+01    6.913467e+03
  4.067955e+01    6.914792e+03
  4.077110e+01    6.968549e+03
  4.086264e+01    7.143394e+03
  4.095418e+01    8.594726e+03
  4.104572e+01    1.288390e+04
  4.113726e+01    8.641461e+03
  4.122880e+01    7.107608e+03
  4.132034e+01    6.904107e+03
  4.141189e+01    6.843504e+03
  4.150343e+01    6.814361e+03
  4.159497e+01    6.812872e+03
  4.168651e+01    6.811869e+03
  4.177805e+01    6.793745e+03
  4.186959e+01    6.790958e+03
  4.196113e+01    6.805776e+03
  4.205268e+01    7.019367e+03
  4.214422e+01    7.995697e+03
  4.223576e+01    7.270327e+03
  4.232730e+01    6.818325e+03
  4.241884e+01    6.764830e+03
  4.251038e+01    6.747683e+03
  4.260192e+01    6.747055e+03
  4.269347e+01    6.757395e+03
  4.278501e+01    6.756052e+03
  4.287655e+01    6.781664e+03
  4.296809e+01    6.875004e+03
  4.305963e+01    7.020988e+03
  4.315117e+01    8.151475e+03
  4.324272e+01    1.189863e+04
  4.333426e+01    8.703354e+03
  4.342580e+01    7.709754e+03
  4.351734e+01    1.022508e+04
  4.360888e+01    2.548962e+04
  4.370042e+01    1.453511e+04
  4.379196e+01    7.936921e+03
  4.388351e+01    7.172998e+03
  4.397505e+01    7.061625e+03
  4.406659e+01    7.243327e+03
  4.415813e+01    8.348000e+03
  4.424967e+01    1.792122e+04
  4.434121e+01    2.555183e+04
  4.443275e+01    1.014778e+04
  4.452430e+01    7.408381e+03
  4.461584e+01    6.935276e+03
  4.470738e+01    6.746638e+03
  4.479892e+01    6.669196e+03
  4.489046e+01    6.633616e+03
  4.498200e+01    6.642815e+03
  4.507354e+01    6.660020e+03
  4.516509e+01    6.802596e+03
  4.525663e+01    7.897483e+03
  4.534817e+01    1.232871e+04
  4.543971e+01    8.825729e+03
  4.553125e+01    6.851212e+03
  4.562279e+01    6.563039e+03
  4.571433e+01    6.489324e+03
  4.580588e+01    6.443395e+03
  4.589742e+01    6.415458e+03
  4.598896e+01    6.382425e+03
  4.608050e+01    6.373746e+03
  4.617204e+01    6.400735e+03
  4.626358e+01    6.622176e+03
  4.635513e+01    7.988296e+03
  4.644667e+01    7.423023e+03
  4.653821e+01    6.511389e+03
  4.662975e+01    6.405553e+03
  4.672129e+01    6.387507e+03
  4.681283e+01    6.403323e+03
  4.690437e+01    6.446262e+03
  4.699592e+01    6.480534e+03
  4.708746e+01    6.545151e+03
  4.717900e+01    6.607026e+03
  4.727054e+01    6.831118e+03
  4.736208e+01    7.804127e+03
  4.745362e+01    7.564431e+03
  4.754516e+01    7.202443e+03
  4.763671e+01    7.356139e+03
  4.772825e+01    7.203686e+03
  4.781979e+01    6.840766e+03
  4.788844e+01    2.770391e+03