Folder: heo-xas-xrd/Output/ROCK_XRD/WAM39B_integrated/rampe3 (part 6)

File: wam39b_rampe_3_xrd_000015_integrated.dat
# == pyFAI calibration ==
# Distance Sample to Detector: 0.261615 m
# PONI: 2.023e-01, 2.348e-01 m
# Rotations: -0.026380 0.002005 0.000000 rad
#
# == Fit2d calibration ==
# Distance Sample-beamCenter: 261.707 mm
# Center: x=6119.331, y=5134.776 pix
# Tilt: 1.516 deg  TiltPlanRot: 4.347 deg
#
# Detector Rayonix SX165	 PixelSize= 3.950e-05, 3.950e-05 m
#    Detector has a mask: True
#    Detector has a dark current: False
#    detector has a flat field: False
#
# Wavelength: 1.12713e-10 m
# Mask applied: from detector
# Dark current applied: False
# Flat field applied: False
# Polarization factor: None
# Normalization factor: 1.0
# --> ROCK\\WAM39B_integrated\wam39b_rampe_3_xrd_000015_integrated.dat
#       2th_deg             I
  2.502596e+01    4.776184e+03
  2.511750e+01    1.957281e+04
  2.520905e+01    1.987516e+04
  2.530059e+01    1.997879e+04
  2.539213e+01    1.941289e+04
  2.548367e+01    1.930191e+04
  2.557521e+01    1.929420e+04
  2.566675e+01    1.956496e+04
  2.575829e+01    1.997458e+04
  2.584984e+01    2.017721e+04
  2.594138e+01    1.998604e+04
  2.603292e+01    1.963380e+04
  2.612446e+01    1.930222e+04
  2.621600e+01    1.911250e+04
  2.630754e+01    1.951308e+04
  2.639908e+01    2.241995e+04
  2.649063e+01    3.221120e+04
  2.658217e+01    3.082552e+04
  2.667371e+01    4.398194e+04
  2.676525e+01    2.823205e+04
  2.685679e+01    1.940637e+04
  2.694833e+01    1.748410e+04
  2.703988e+01    1.685035e+04
  2.713142e+01    1.651618e+04
  2.722296e+01    1.623595e+04
  2.731450e+01    1.601153e+04
  2.740604e+01    1.580659e+04
  2.749758e+01    1.567790e+04
  2.758912e+01    1.558499e+04
  2.768067e+01    1.550487e+04
  2.777221e+01    1.548432e+04
  2.786375e+01    1.559222e+04
  2.795529e+01    1.586502e+04
  2.804683e+01    1.730609e+04
  2.813837e+01    2.143118e+04
  2.822991e+01    1.757018e+04
  2.832146e+01    1.558560e+04
  2.841300e+01    1.476867e+04
  2.850454e+01    1.427918e+04
  2.859608e+01    1.392024e+04
  2.868762e+01    1.364362e+04
  2.877916e+01    1.341244e+04
  2.887070e+01    1.322736e+04
  2.896225e+01    1.306331e+04
  2.905379e+01    1.296246e+04
  2.914533e+01    1.292412e+04
  2.923687e+01    1.279887e+04
  2.932841e+01    1.251614e+04
  2.941995e+01    1.226176e+04
  2.951149e+01    1.208953e+04
  2.960304e+01    1.233746e+04
  2.969458e+01    1.372863e+04
  2.978612e+01    1.215156e+04
  2.987766e+01    1.146172e+04
  2.996920e+01    1.127549e+04
  3.006074e+01    1.118401e+04
  3.015228e+01    1.113000e+04
  3.024383e+01    1.107674e+04
  3.033537e+01    1.106506e+04
  3.042691e+01    1.108467e+04
  3.051845e+01    1.120839e+04
  3.060999e+01    1.159318e+04
  3.070153e+01    1.313655e+04
  3.079308e+01    2.047331e+04
  3.088462e+01    4.145781e+04
  3.097616e+01    3.331695e+04
  3.106770e+01    1.948614e+04
  3.115924e+01    2.898894e+04
  3.125078e+01    2.045858e+04
  3.134232e+01    1.187573e+04
  3.143387e+01    1.064447e+04
  3.152541e+01    1.026269e+04
  3.161695e+01    1.006956e+04
  3.170849e+01    9.932104e+03
  3.180003e+01    9.835698e+03
  3.189157e+01    9.761511e+03
  3.198311e+01    9.704162e+03
  3.207466e+01    9.658104e+03
  3.216620e+01    9.647189e+03
  3.225774e+01    9.637729e+03
  3.234928e+01    9.566061e+03
  3.244082e+01    9.511924e+03
  3.253236e+01    9.991153e+03
  3.262390e+01    1.108884e+04
  3.271545e+01    9.641032e+03
  3.280699e+01    9.295656e+03
  3.289853e+01    9.259811e+03
  3.299007e+01    9.188729e+03
  3.308161e+01    9.020994e+03
  3.317315e+01    8.918727e+03
  3.326469e+01    8.838918e+03
  3.335624e+01    8.792714e+03
  3.344778e+01    8.754992e+03
  3.353932e+01    8.726647e+03
  3.363086e+01    8.730767e+03
  3.372240e+01    8.796492e+03
  3.381394e+01    9.269106e+03
  3.390549e+01    1.378593e+04
  3.399703e+01    2.224917e+04
  3.408857e+01    1.126379e+04
  3.418011e+01    8.840236e+03
  3.427165e+01    8.452286e+03
  3.436319e+01    8.314996e+03
  3.445473e+01    8.228900e+03
  3.454628e+01    8.182884e+03
  3.463782e+01    8.158771e+03
  3.472936e+01    8.157685e+03
  3.482090e+01    8.146435e+03
  3.491244e+01    8.180174e+03
  3.500398e+01    8.208971e+03
  3.509552e+01    8.166207e+03
  3.518707e+01    8.053396e+03
  3.527861e+01    7.914600e+03
  3.537015e+01    7.794274e+03
  3.546169e+01    7.702471e+03
  3.555323e+01    7.639533e+03
  3.564477e+01    7.587938e+03
  3.573631e+01    7.563204e+03
  3.582786e+01    7.541984e+03
  3.591940e+01    7.533169e+03
  3.601094e+01    7.534772e+03
  3.610248e+01    7.542172e+03
  3.619402e+01    7.560033e+03
  3.628556e+01    7.590912e+03
  3.637710e+01    7.697022e+03
  3.646865e+01    8.338444e+03
  3.656019e+01    1.272346e+04
  3.665173e+01    1.040408e+04
  3.674327e+01    7.965115e+03
  3.683481e+01    7.698641e+03
  3.692635e+01    7.660010e+03
  3.701790e+01    7.664203e+03
  3.710944e+01    7.683983e+03
  3.720098e+01    7.735557e+03
  3.729252e+01    7.798741e+03
  3.738406e+01    7.925704e+03
  3.747560e+01    8.152708e+03
  3.756714e+01    8.739745e+03
  3.765869e+01    1.097186e+04
  3.775023e+01    3.143393e+04
  3.784177e+01    7.301225e+04
  3.793331e+01    2.175377e+04
  3.802485e+01    1.019015e+04
  3.811639e+01    8.626331e+03
  3.820793e+01    8.154552e+03
  3.829948e+01    7.944631e+03
  3.839102e+01    7.845836e+03
  3.848256e+01    7.793519e+03
  3.857410e+01    7.777849e+03
  3.866564e+01    7.767169e+03
  3.875718e+01    7.772610e+03
  3.884872e+01    7.817907e+03
  3.894027e+01    8.304875e+03
  3.903181e+01    1.038180e+04
  3.912335e+01    8.508454e+03
  3.921489e+01    7.735488e+03
  3.930643e+01    7.614342e+03
  3.939797e+01    7.569306e+03
  3.948951e+01    7.539852e+03
  3.958106e+01    7.536723e+03
  3.967260e+01    7.527855e+03
  3.976414e+01    7.500289e+03
  3.985568e+01    7.473020e+03
  3.994722e+01    7.429638e+03
  4.003876e+01    7.389928e+03
  4.013031e+01    7.565601e+03
  4.022185e+01    8.010349e+03
  4.031339e+01    7.463609e+03
  4.040493e+01    7.286940e+03
  4.049647e+01    7.255998e+03
  4.058801e+01    7.230429e+03
  4.067955e+01    7.216203e+03
  4.077110e+01    7.209568e+03
  4.086264e+01    7.205988e+03
  4.095418e+01    7.217421e+03
  4.104572e+01    7.251313e+03
  4.113726e+01    7.351686e+03
  4.122880e+01    7.895310e+03
  4.132034e+01    1.277725e+04
  4.141189e+01    1.209459e+04
  4.150343e+01    7.915811e+03
  4.159497e+01    7.436704e+03
  4.168651e+01    7.385854e+03
  4.177805e+01    7.339205e+03
  4.186959e+01    7.291176e+03
  4.196113e+01    7.254107e+03
  4.205268e+01    7.243488e+03
  4.214422e+01    7.282072e+03
  4.223576e+01    7.359622e+03
  4.232730e+01    7.480512e+03
  4.241884e+01    8.123339e+03
  4.251038e+01    8.654461e+03
  4.260192e+01    7.340969e+03
  4.269347e+01    7.086593e+03
  4.278501e+01    7.018985e+03
  4.287655e+01    6.978568e+03
  4.296809e+01    6.980796e+03
  4.305963e+01    6.972815e+03
  4.315117e+01    6.979790e+03
  4.324272e+01    7.005924e+03
  4.333426e+01    7.107046e+03
  4.342580e+01    7.390371e+03
  4.351734e+01    1.007472e+04
  4.360888e+01    1.244030e+04
  4.370042e+01    7.965840e+03
  4.379196e+01    7.295347e+03
  4.388351e+01    7.331360e+03
  4.397505e+01    7.625979e+03
  4.406659e+01    8.658218e+03
  4.415813e+01    1.317217e+04
  4.424967e+01    2.255203e+04
  4.434121e+01    1.516851e+04
  4.443275e+01    9.810184e+03
  4.452430e+01    1.037047e+04
  4.461584e+01    2.683117e+04
  4.470738e+01    2.421653e+04
  4.479892e+01    9.476181e+03
  4.489046e+01    7.554301e+03
  4.498200e+01    7.159866e+03
  4.507354e+01    6.998197e+03
  4.516509e+01    6.919715e+03
  4.525663e+01    6.889630e+03
  4.534817e+01    6.881782e+03
  4.543971e+01    6.918837e+03
  4.553125e+01    7.138239e+03
  4.562279e+01    8.908905e+03
  4.571433e+01    1.426596e+04
  4.580588e+01    8.866839e+03
  4.589742e+01    7.125423e+03
  4.598896e+01    6.910024e+03
  4.608050e+01    6.883094e+03
  4.617204e+01    6.912348e+03
  4.626358e+01    6.956817e+03
  4.635513e+01    6.902161e+03
  4.644667e+01    6.820176e+03
  4.653821e+01    6.818755e+03
  4.662975e+01    7.096599e+03
  4.672129e+01    8.824353e+03
  4.681283e+01    8.001516e+03
  4.690437e+01    7.127305e+03
  4.699592e+01    7.079867e+03
  4.708746e+01    7.101739e+03
  4.717900e+01    7.099393e+03
  4.727054e+01    7.091231e+03
  4.736208e+01    7.150367e+03
  4.745362e+01    7.273664e+03
  4.754516e+01    7.549172e+03
  4.763671e+01    7.976110e+03
  4.772825e+01    8.940648e+03
  4.781979e+01    8.016967e+03
  4.788844e+01    2.986898e+03