Folder: heo-xas-xrd/Output/ROCK_XRD/WAM39B_integrated/rampe3 (part 4)

File: wam39b_rampe_3_xrd_000009_integrated.dat
# == pyFAI calibration ==
# Distance Sample to Detector: 0.261615 m
# PONI: 2.023e-01, 2.348e-01 m
# Rotations: -0.026380 0.002005 0.000000 rad
#
# == Fit2d calibration ==
# Distance Sample-beamCenter: 261.707 mm
# Center: x=6119.331, y=5134.776 pix
# Tilt: 1.516 deg  TiltPlanRot: 4.347 deg
#
# Detector Rayonix SX165	 PixelSize= 3.950e-05, 3.950e-05 m
#    Detector has a mask: True
#    Detector has a dark current: False
#    detector has a flat field: False
#
# Wavelength: 1.12713e-10 m
# Mask applied: from detector
# Dark current applied: False
# Flat field applied: False
# Polarization factor: None
# Normalization factor: 1.0
# --> ROCK\\WAM39B_integrated\wam39b_rampe_3_xrd_000009_integrated.dat
#       2th_deg             I
  2.502596e+01    4.612805e+03
  2.511750e+01    1.897302e+04
  2.520905e+01    1.926300e+04
  2.530059e+01    1.934050e+04
  2.539213e+01    1.878887e+04
  2.548367e+01    1.871104e+04
  2.557521e+01    1.871171e+04
  2.566675e+01    1.901312e+04
  2.575829e+01    1.944088e+04
  2.584984e+01    1.956383e+04
  2.594138e+01    1.932458e+04
  2.603292e+01    1.897450e+04
  2.612446e+01    1.862160e+04
  2.621600e+01    1.849712e+04
  2.630754e+01    1.912170e+04
  2.639908e+01    2.302352e+04
  2.649063e+01    3.222253e+04
  2.658217e+01    3.332154e+04
  2.667371e+01    4.120892e+04
  2.676525e+01    2.345876e+04
  2.685679e+01    1.804750e+04
  2.694833e+01    1.673630e+04
  2.703988e+01    1.623410e+04
  2.713142e+01    1.595204e+04
  2.722296e+01    1.567742e+04
  2.731450e+01    1.549131e+04
  2.740604e+01    1.529573e+04
  2.749758e+01    1.517463e+04
  2.758912e+01    1.508726e+04
  2.768067e+01    1.502074e+04
  2.777221e+01    1.502062e+04
  2.786375e+01    1.514389e+04
  2.795529e+01    1.553001e+04
  2.804683e+01    1.745039e+04
  2.813837e+01    2.069587e+04
  2.822991e+01    1.644932e+04
  2.832146e+01    1.489416e+04
  2.841300e+01    1.417063e+04
  2.850454e+01    1.373836e+04
  2.859608e+01    1.343701e+04
  2.868762e+01    1.317249e+04
  2.877916e+01    1.295249e+04
  2.887070e+01    1.277530e+04
  2.896225e+01    1.263992e+04
  2.905379e+01    1.257589e+04
  2.914533e+01    1.251831e+04
  2.923687e+01    1.234501e+04
  2.932841e+01    1.206118e+04
  2.941995e+01    1.182696e+04
  2.951149e+01    1.169203e+04
  2.960304e+01    1.213650e+04
  2.969458e+01    1.321898e+04
  2.978612e+01    1.154214e+04
  2.987766e+01    1.103463e+04
  2.996920e+01    1.089488e+04
  3.006074e+01    1.080331e+04
  3.015228e+01    1.074976e+04
  3.024383e+01    1.070651e+04
  3.033537e+01    1.070106e+04
  3.042691e+01    1.073692e+04
  3.051845e+01    1.090480e+04
  3.060999e+01    1.144884e+04
  3.070153e+01    1.377992e+04
  3.079308e+01    2.563081e+04
  3.088462e+01    4.366432e+04
  3.097616e+01    2.520827e+04
  3.106770e+01    1.785875e+04
  3.115924e+01    2.951826e+04
  3.125078e+01    1.689211e+04
  3.134232e+01    1.106086e+04
  3.143387e+01    1.019444e+04
  3.152541e+01    9.867529e+03
  3.161695e+01    9.691148e+03
  3.170849e+01    9.585468e+03
  3.180003e+01    9.489283e+03
  3.189157e+01    9.412343e+03
  3.198311e+01    9.367433e+03
  3.207466e+01    9.339970e+03
  3.216620e+01    9.324229e+03
  3.225774e+01    9.301211e+03
  3.234928e+01    9.237530e+03
  3.244082e+01    9.206999e+03
  3.253236e+01    9.960327e+03
  3.262390e+01    1.047895e+04
  3.271545e+01    9.167608e+03
  3.280699e+01    8.972976e+03
  3.289853e+01    8.951960e+03
  3.299007e+01    8.860035e+03
  3.308161e+01    8.700141e+03
  3.317315e+01    8.588435e+03
  3.326469e+01    8.522924e+03
  3.335624e+01    8.483901e+03
  3.344778e+01    8.455193e+03
  3.353932e+01    8.435012e+03
  3.363086e+01    8.434632e+03
  3.372240e+01    8.553045e+03
  3.381394e+01    9.234731e+03
  3.390549e+01    1.592041e+04
  3.399703e+01    1.957271e+04
  3.408857e+01    9.906371e+03
  3.418011e+01    8.421744e+03
  3.427165e+01    8.139437e+03
  3.436319e+01    8.021315e+03
  3.445473e+01    7.945507e+03
  3.454628e+01    7.905131e+03
  3.463782e+01    7.878454e+03
  3.472936e+01    7.873778e+03
  3.482090e+01    7.873102e+03
  3.491244e+01    7.897821e+03
  3.500398e+01    7.920420e+03
  3.509552e+01    7.885863e+03
  3.518707e+01    7.771774e+03
  3.527861e+01    7.643546e+03
  3.537015e+01    7.534366e+03
  3.546169e+01    7.436953e+03
  3.555323e+01    7.371281e+03
  3.564477e+01    7.338490e+03
  3.573631e+01    7.304909e+03
  3.582786e+01    7.284489e+03
  3.591940e+01    7.277500e+03
  3.601094e+01    7.277595e+03
  3.610248e+01    7.286907e+03
  3.619402e+01    7.308704e+03
  3.628556e+01    7.352154e+03
  3.637710e+01    7.492725e+03
  3.646865e+01    8.538271e+03
  3.656019e+01    1.290746e+04
  3.665173e+01    9.098618e+03
  3.674327e+01    7.596829e+03
  3.683481e+01    7.443641e+03
  3.692635e+01    7.410500e+03
  3.701790e+01    7.421855e+03
  3.710944e+01    7.447148e+03
  3.720098e+01    7.500784e+03
  3.729252e+01    7.581437e+03
  3.738406e+01    7.707055e+03
  3.747560e+01    7.986844e+03
  3.756714e+01    8.715119e+03
  3.765869e+01    1.203767e+04
  3.775023e+01    4.423947e+04
  3.784177e+01    6.096198e+04
  3.793331e+01    1.582791e+04
  3.802485e+01    9.302352e+03
  3.811639e+01    8.220367e+03
  3.820793e+01    7.834450e+03
  3.829948e+01    7.675192e+03
  3.839102e+01    7.585801e+03
  3.848256e+01    7.550215e+03
  3.857410e+01    7.539567e+03
  3.866564e+01    7.530880e+03
  3.875718e+01    7.546031e+03
  3.884872e+01    7.611903e+03
  3.894027e+01    8.457088e+03
  3.903181e+01    9.910810e+03
  3.912335e+01    7.897882e+03
  3.921489e+01    7.453813e+03
  3.930643e+01    7.372924e+03
  3.939797e+01    7.339655e+03
  3.948951e+01    7.302538e+03
  3.958106e+01    7.299234e+03
  3.967260e+01    7.303611e+03
  3.976414e+01    7.258334e+03
  3.985568e+01    7.234188e+03
  3.994722e+01    7.189878e+03
  4.003876e+01    7.176435e+03
  4.013031e+01    7.472119e+03
  4.022185e+01    7.677867e+03
  4.031339e+01    7.161524e+03
  4.040493e+01    7.056720e+03
  4.049647e+01    7.025197e+03
  4.058801e+01    7.020221e+03
  4.067955e+01    6.997640e+03
  4.077110e+01    6.992450e+03
  4.086264e+01    6.994361e+03
  4.095418e+01    7.004541e+03
  4.104572e+01    7.045430e+03
  4.113726e+01    7.178248e+03
  4.122880e+01    8.140822e+03
  4.132034e+01    1.386293e+04
  4.141189e+01    1.009455e+04
  4.150343e+01    7.454482e+03
  4.159497e+01    7.198767e+03
  4.168651e+01    7.159122e+03
  4.177805e+01    7.100537e+03
  4.186959e+01    7.044598e+03
  4.196113e+01    7.023974e+03
  4.205268e+01    7.024658e+03
  4.214422e+01    7.072197e+03
  4.223576e+01    7.172602e+03
  4.232730e+01    7.300238e+03
  4.241884e+01    8.282133e+03
  4.251038e+01    7.995778e+03
  4.260192e+01    7.012116e+03
  4.269347e+01    6.849567e+03
  4.278501e+01    6.804082e+03
  4.287655e+01    6.779610e+03
  4.296809e+01    6.780918e+03
  4.305963e+01    6.768088e+03
  4.315117e+01    6.780030e+03
  4.324272e+01    6.826493e+03
  4.333426e+01    6.934964e+03
  4.342580e+01    7.402932e+03
  4.351734e+01    1.145217e+04
  4.360888e+01    1.069788e+04
  4.370042e+01    7.380254e+03
  4.379196e+01    7.074163e+03
  4.388351e+01    7.211794e+03
  4.397505e+01    7.666993e+03
  4.406659e+01    9.677149e+03
  4.415813e+01    1.811571e+04
  4.424967e+01    1.962731e+04
  4.434121e+01    1.101321e+04
  4.443275e+01    8.776191e+03
  4.452430e+01    1.164834e+04
  4.461584e+01    3.118803e+04
  4.470738e+01    1.728517e+04
  4.479892e+01    8.270493e+03
  4.489046e+01    7.162161e+03
  4.498200e+01    6.892899e+03
  4.507354e+01    6.769003e+03
  4.516509e+01    6.712604e+03
  4.525663e+01    6.677977e+03
  4.534817e+01    6.690163e+03
  4.543971e+01    6.741725e+03
  4.553125e+01    7.093325e+03
  4.562279e+01    1.027126e+04
  4.571433e+01    1.289197e+04
  4.580588e+01    7.694666e+03
  4.589742e+01    6.808196e+03
  4.598896e+01    6.689560e+03
  4.608050e+01    6.676304e+03
  4.617204e+01    6.717155e+03
  4.626358e+01    6.747020e+03
  4.635513e+01    6.674876e+03
  4.644667e+01    6.606883e+03
  4.653821e+01    6.647903e+03
  4.662975e+01    7.157407e+03
  4.672129e+01    8.752129e+03
  4.681283e+01    7.306623e+03
  4.690437e+01    6.860695e+03
  4.699592e+01    6.861058e+03
  4.708746e+01    6.880105e+03
  4.717900e+01    6.856120e+03
  4.727054e+01    6.881532e+03
  4.736208e+01    6.928698e+03
  4.745362e+01    7.040335e+03
  4.754516e+01    7.356702e+03
  4.763671e+01    7.912954e+03
  4.772825e+01    8.863564e+03
  4.781979e+01    7.457981e+03
  4.788844e+01    2.875603e+03

File: wam39b_rampe_3_xrd_000010_integrated.dat
# == pyFAI calibration ==
# Distance Sample to Detector: 0.261615 m
# PONI: 2.023e-01, 2.348e-01 m
# Rotations: -0.026380 0.002005 0.000000 rad
#
# == Fit2d calibration ==
# Distance Sample-beamCenter: 261.707 mm
# Center: x=6119.331, y=5134.776 pix
# Tilt: 1.516 deg  TiltPlanRot: 4.347 deg
#
# Detector Rayonix SX165	 PixelSize= 3.950e-05, 3.950e-05 m
#    Detector has a mask: True
#    Detector has a dark current: False
#    detector has a flat field: False
#
# Wavelength: 1.12713e-10 m
# Mask applied: from detector
# Dark current applied: False
# Flat field applied: False
# Polarization factor: None
# Normalization factor: 1.0
# --> ROCK\\WAM39B_integrated\wam39b_rampe_3_xrd_000010_integrated.dat
#       2th_deg             I
  2.502596e+01    5.056729e+03
  2.511750e+01    2.066070e+04
  2.520905e+01    2.095770e+04
  2.530059e+01    2.102647e+04
  2.539213e+01    2.045949e+04
  2.548367e+01    2.034664e+04
  2.557521e+01    2.034524e+04
  2.566675e+01    2.062232e+04
  2.575829e+01    2.106170e+04
  2.584984e+01    2.125730e+04
  2.594138e+01    2.104316e+04
  2.603292e+01    2.067948e+04
  2.612446e+01    2.030317e+04
  2.621600e+01    2.010642e+04
  2.630754e+01    2.060737e+04
  2.639908e+01    2.387085e+04
  2.649063e+01    3.436187e+04
  2.658217e+01    3.377526e+04
  2.667371e+01    4.644030e+04
  2.676525e+01    2.789972e+04
  2.685679e+01    2.009137e+04
  2.694833e+01    1.832642e+04
  2.703988e+01    1.770833e+04
  2.713142e+01    1.738067e+04
  2.722296e+01    1.707085e+04
  2.731450e+01    1.687175e+04
  2.740604e+01    1.664819e+04
  2.749758e+01    1.651531e+04
  2.758912e+01    1.641684e+04
  2.768067e+01    1.632798e+04
  2.777221e+01    1.629454e+04
  2.786375e+01    1.643242e+04
  2.795529e+01    1.675021e+04
  2.804683e+01    1.835900e+04
  2.813837e+01    2.259993e+04
  2.822991e+01    1.834379e+04
  2.832146e+01    1.632229e+04
  2.841300e+01    1.549807e+04
  2.850454e+01    1.499784e+04
  2.859608e+01    1.464555e+04
  2.868762e+01    1.434533e+04
  2.877916e+01    1.410401e+04
  2.887070e+01    1.390031e+04
  2.896225e+01    1.373489e+04
  2.905379e+01    1.364459e+04
  2.914533e+01    1.358931e+04
  2.923687e+01    1.342907e+04
  2.932841e+01    1.313614e+04
  2.941995e+01    1.287350e+04
  2.951149e+01    1.269820e+04
  2.960304e+01    1.300742e+04
  2.969458e+01    1.442473e+04
  2.978612e+01    1.270238e+04
  2.987766e+01    1.202242e+04
  2.996920e+01    1.184095e+04
  3.006074e+01    1.173362e+04
  3.015228e+01    1.167444e+04
  3.024383e+01    1.161694e+04
  3.033537e+01    1.160886e+04
  3.042691e+01    1.164750e+04
  3.051845e+01    1.178990e+04
  3.060999e+01    1.224597e+04
  3.070153e+01    1.411079e+04
  3.079308e+01    2.340076e+04
  3.088462e+01    4.599010e+04
  3.097616e+01    3.189092e+04
  3.106770e+01    1.948429e+04
  3.115924e+01    3.068421e+04
  3.125078e+01    2.078432e+04
  3.134232e+01    1.234032e+04
  3.143387e+01    1.113768e+04
  3.152541e+01    1.075031e+04
  3.161695e+01    1.055320e+04
  3.170849e+01    1.042073e+04
  3.180003e+01    1.031414e+04
  3.189157e+01    1.023926e+04
  3.198311e+01    1.017532e+04
  3.207466e+01    1.012473e+04
  3.216620e+01    1.011638e+04
  3.225774e+01    1.010346e+04
  3.234928e+01    1.003091e+04
  3.244082e+01    9.988663e+03
  3.253236e+01    1.052509e+04
  3.262390e+01    1.158957e+04
  3.271545e+01    1.006865e+04
  3.280699e+01    9.747742e+03
  3.289853e+01    9.704630e+03
  3.299007e+01    9.620767e+03
  3.308161e+01    9.458624e+03
  3.317315e+01    9.324743e+03
  3.326469e+01    9.256058e+03
  3.335624e+01    9.211161e+03
  3.344778e+01    9.181960e+03
  3.353932e+01    9.147488e+03
  3.363086e+01    9.142125e+03
  3.372240e+01    9.226222e+03
  3.381394e+01    9.750778e+03
  3.390549e+01    1.488085e+04
  3.399703e+01    2.304862e+04
  3.408857e+01    1.154955e+04
  3.418011e+01    9.230679e+03
  3.427165e+01    8.860403e+03
  3.436319e+01    8.710448e+03
  3.445473e+01    8.622808e+03
  3.454628e+01    8.581175e+03
  3.463782e+01    8.551948e+03
  3.472936e+01    8.543337e+03
  3.482090e+01    8.532452e+03
  3.491244e+01    8.555216e+03
  3.500398e+01    8.581425e+03
  3.509552e+01    8.565100e+03
  3.518707e+01    8.444462e+03
  3.527861e+01    8.306906e+03
  3.537015e+01    8.184118e+03
  3.546169e+01    8.079724e+03
  3.555323e+01    8.004764e+03
  3.564477e+01    7.955199e+03
  3.573631e+01    7.917204e+03
  3.582786e+01    7.888801e+03
  3.591940e+01    7.896569e+03
  3.601094e+01    7.898827e+03
  3.610248e+01    7.894977e+03
  3.619402e+01    7.918750e+03
  3.628556e+01    7.950021e+03
  3.637710e+01    8.069596e+03
  3.646865e+01    8.792608e+03
  3.656019e+01    1.349876e+04
  3.665173e+01    1.067476e+04
  3.674327e+01    8.314843e+03
  3.683481e+01    8.073831e+03
  3.692635e+01    8.026029e+03
  3.701790e+01    8.032159e+03
  3.710944e+01    8.063477e+03
  3.720098e+01    8.103886e+03
  3.729252e+01    8.190316e+03
  3.738406e+01    8.313513e+03
  3.747560e+01    8.574738e+03
  3.756714e+01    9.214780e+03
  3.765869e+01    1.170333e+04
  3.775023e+01    3.515398e+04
  3.784177e+01    7.517517e+04
  3.793331e+01    2.144158e+04
  3.802485e+01    1.054331e+04
  3.811639e+01    9.024116e+03
  3.820793e+01    8.536453e+03
  3.829948e+01    8.333459e+03
  3.839102e+01    8.224849e+03
  3.848256e+01    8.178042e+03
  3.857410e+01    8.169815e+03
  3.866564e+01    8.161776e+03
  3.875718e+01    8.158729e+03
  3.884872e+01    8.211173e+03
  3.894027e+01    8.774255e+03
  3.903181e+01    1.089100e+04
  3.912335e+01    8.833739e+03
  3.921489e+01    8.117290e+03
  3.930643e+01    8.000343e+03
  3.939797e+01    7.956492e+03
  3.948951e+01    7.912348e+03
  3.958106e+01    7.901996e+03
  3.967260e+01    7.902419e+03
  3.976414e+01    7.877226e+03
  3.985568e+01    7.847690e+03
  3.994722e+01    7.791944e+03
  4.003876e+01    7.761311e+03
  4.013031e+01    7.960200e+03
  4.022185e+01    8.404647e+03
  4.031339e+01    7.816441e+03
  4.040493e+01    7.651939e+03
  4.049647e+01    7.611912e+03
  4.058801e+01    7.592314e+03
  4.067955e+01    7.576123e+03
  4.077110e+01    7.567875e+03
  4.086264e+01    7.567521e+03
  4.095418e+01    7.576234e+03
  4.104572e+01    7.610051e+03
  4.113726e+01    7.724946e+03
  4.122880e+01    8.340565e+03
  4.132034e+01    1.372986e+04
  4.141189e+01    1.233380e+04
  4.150343e+01    8.242868e+03
  4.159497e+01    7.808310e+03
  4.168651e+01    7.755839e+03
  4.177805e+01    7.701906e+03
  4.186959e+01    7.646863e+03
  4.196113e+01    7.602763e+03
  4.205268e+01    7.594153e+03
  4.214422e+01    7.644338e+03
  4.223576e+01    7.731947e+03
  4.232730e+01    7.845396e+03
  4.241884e+01    8.591324e+03
  4.251038e+01    8.997327e+03
  4.260192e+01    7.664633e+03
  4.269347e+01    7.437100e+03
  4.278501e+01    7.363395e+03
  4.287655e+01    7.329724e+03
  4.296809e+01    7.328599e+03
  4.305963e+01    7.321260e+03
  4.315117e+01    7.331603e+03
  4.324272e+01    7.365509e+03
  4.333426e+01    7.467802e+03
  4.342580e+01    7.786096e+03
  4.351734e+01    1.086611e+04
  4.360888e+01    1.279501e+04
  4.370042e+01    8.273158e+03
  4.379196e+01    7.657712e+03
  4.388351e+01    7.724884e+03
  4.397505e+01    8.085167e+03
  4.406659e+01    9.435894e+03
  4.415813e+01    1.566243e+04
  4.424967e+01    2.351241e+04
  4.434121e+01    1.401461e+04
  4.443275e+01    9.793118e+03
  4.452430e+01    1.095427e+04
  4.461584e+01    2.927034e+04
  4.470738e+01    2.405479e+04
  4.479892e+01    9.680566e+03
  4.489046e+01    7.884518e+03
  4.498200e+01    7.504076e+03
  4.507354e+01    7.340695e+03
  4.516509e+01    7.272834e+03
  4.525663e+01    7.236583e+03
  4.534817e+01    7.230681e+03
  4.543971e+01    7.257809e+03
  4.553125e+01    7.507300e+03
  4.562279e+01    9.561705e+03
  4.571433e+01    1.484149e+04
  4.580588e+01    9.074167e+03
  4.589742e+01    7.445342e+03
  4.598896e+01    7.247991e+03
  4.608050e+01    7.208309e+03
  4.617204e+01    7.259138e+03
  4.626358e+01    7.289617e+03
  4.635513e+01    7.248859e+03
  4.644667e+01    7.155425e+03
  4.653821e+01    7.168134e+03
  4.662975e+01    7.478778e+03
  4.672129e+01    9.334975e+03
  4.681283e+01    8.276970e+03
  4.690437e+01    7.458999e+03
  4.699592e+01    7.409788e+03
  4.708746e+01    7.460994e+03
  4.717900e+01    7.429523e+03
  4.727054e+01    7.444151e+03
  4.736208e+01    7.515767e+03
  4.745362e+01    7.655909e+03
  4.754516e+01    7.952503e+03
  4.763671e+01    8.402008e+03
  4.772825e+01    9.463513e+03
  4.781979e+01    8.330738e+03
  4.788844e+01    3.134794e+03

File: wam39b_rampe_3_xrd_000011_integrated.dat
# == pyFAI calibration ==
# Distance Sample to Detector: 0.261615 m
# PONI: 2.023e-01, 2.348e-01 m
# Rotations: -0.026380 0.002005 0.000000 rad
#
# == Fit2d calibration ==
# Distance Sample-beamCenter: 261.707 mm
# Center: x=6119.331, y=5134.776 pix
# Tilt: 1.516 deg  TiltPlanRot: 4.347 deg
#
# Detector Rayonix SX165	 PixelSize= 3.950e-05, 3.950e-05 m
#    Detector has a mask: True
#    Detector has a dark current: False
#    detector has a flat field: False
#
# Wavelength: 1.12713e-10 m
# Mask applied: from detector
# Dark current applied: False
# Flat field applied: False
# Polarization factor: None
# Normalization factor: 1.0
# --> ROCK\\WAM39B_integrated\wam39b_rampe_3_xrd_000011_integrated.dat
#       2th_deg             I
  2.502596e+01    4.418917e+03
  2.511750e+01    1.809801e+04
  2.520905e+01    1.837056e+04
  2.530059e+01    1.846049e+04
  2.539213e+01    1.794028e+04
  2.548367e+01    1.786296e+04
  2.557521e+01    1.789644e+04
  2.566675e+01    1.817512e+04
  2.575829e+01    1.856493e+04
  2.584984e+01    1.870736e+04
  2.594138e+01    1.846208e+04
  2.603292e+01    1.815429e+04
  2.612446e+01    1.782348e+04
  2.621600e+01    1.769622e+04
  2.630754e+01    1.829812e+04
  2.639908e+01    2.204852e+04
  2.649063e+01    3.047872e+04
  2.658217e+01    3.058944e+04
  2.667371e+01    4.024810e+04
  2.676525e+01    2.322804e+04
  2.685679e+01    1.741095e+04
  2.694833e+01    1.603025e+04
  2.703988e+01    1.552718e+04
  2.713142e+01    1.524994e+04
  2.722296e+01    1.499848e+04
  2.731450e+01    1.481598e+04
  2.740604e+01    1.462451e+04
  2.749758e+01    1.450362e+04
  2.758912e+01    1.442458e+04
  2.768067e+01    1.436855e+04
  2.777221e+01    1.434628e+04
  2.786375e+01    1.448777e+04
  2.795529e+01    1.483664e+04
  2.804683e+01    1.671263e+04
  2.813837e+01    1.972875e+04
  2.822991e+01    1.572567e+04
  2.832146e+01    1.427758e+04
  2.841300e+01    1.358546e+04
  2.850454e+01    1.316617e+04
  2.859608e+01    1.285402e+04
  2.868762e+01    1.260760e+04
  2.877916e+01    1.239797e+04
  2.887070e+01    1.222430e+04
  2.896225e+01    1.209807e+04
  2.905379e+01    1.202533e+04
  2.914533e+01    1.198639e+04
  2.923687e+01    1.181883e+04
  2.932841e+01    1.155089e+04
  2.941995e+01    1.133386e+04
  2.951149e+01    1.120218e+04
  2.960304e+01    1.165993e+04
  2.969458e+01    1.265231e+04
  2.978612e+01    1.104563e+04
  2.987766e+01    1.056438e+04
  2.996920e+01    1.042793e+04
  3.006074e+01    1.035382e+04
  3.015228e+01    1.029603e+04
  3.024383e+01    1.025838e+04
  3.033537e+01    1.024118e+04
  3.042691e+01    1.028575e+04
  3.051845e+01    1.043676e+04
  3.060999e+01    1.092223e+04
  3.070153e+01    1.298989e+04
  3.079308e+01    2.299073e+04
  3.088462e+01    4.132352e+04
  3.097616e+01    2.588013e+04
  3.106770e+01    1.776517e+04
  3.115924e+01    2.845152e+04
  3.125078e+01    1.605311e+04
  3.134232e+01    1.059608e+04
  3.143387e+01    9.760992e+03
  3.152541e+01    9.457470e+03
  3.161695e+01    9.297484e+03
  3.170849e+01    9.188118e+03
  3.180003e+01    9.091422e+03
  3.189157e+01    9.030493e+03
  3.198311e+01    8.979941e+03
  3.207466e+01    8.948368e+03
  3.216620e+01    8.935056e+03
  3.225774e+01    8.922869e+03
  3.234928e+01    8.842568e+03
  3.244082e+01    8.824260e+03
  3.253236e+01    9.571946e+03
  3.262390e+01    1.002750e+04
  3.271545e+01    8.790983e+03
  3.280699e+01    8.601474e+03
  3.289853e+01    8.584693e+03
  3.299007e+01    8.489930e+03
  3.308161e+01    8.339461e+03
  3.317315e+01    8.237419e+03
  3.326469e+01    8.173198e+03
  3.335624e+01    8.135634e+03
  3.344778e+01    8.110898e+03
  3.353932e+01    8.088235e+03
  3.363086e+01    8.087961e+03
  3.372240e+01    8.204879e+03
  3.381394e+01    8.887659e+03
  3.390549e+01    1.550496e+04
  3.399703e+01    1.859484e+04
  3.408857e+01    9.451878e+03
  3.418011e+01    8.069345e+03
  3.427165e+01    7.804956e+03
  3.436319e+01    7.686130e+03
  3.445473e+01    7.623610e+03
  3.454628e+01    7.578830e+03
  3.463782e+01    7.556350e+03
  3.472936e+01    7.558564e+03
  3.482090e+01    7.561433e+03
  3.491244e+01    7.579655e+03
  3.500398e+01    7.598132e+03
  3.509552e+01    7.563230e+03
  3.518707e+01    7.446970e+03
  3.527861e+01    7.315463e+03
  3.537015e+01    7.217643e+03
  3.546169e+01    7.129481e+03
  3.555323e+01    7.064142e+03
  3.564477e+01    7.030932e+03
  3.573631e+01    7.007145e+03
  3.582786e+01    6.985633e+03
  3.591940e+01    6.978960e+03
  3.601094e+01    6.980360e+03
  3.610248e+01    6.987191e+03
  3.619402e+01    7.010660e+03
  3.628556e+01    7.046494e+03
  3.637710e+01    7.186626e+03
  3.646865e+01    8.246410e+03
  3.656019e+01    1.240168e+04
  3.665173e+01    8.665806e+03
  3.674327e+01    7.274286e+03
  3.683481e+01    7.122344e+03
  3.692635e+01    7.092953e+03
  3.701790e+01    7.109641e+03
  3.710944e+01    7.130099e+03
  3.720098e+01    7.187979e+03
  3.729252e+01    7.256419e+03
  3.738406e+01    7.391476e+03
  3.747560e+01    7.653502e+03
  3.756714e+01    8.379471e+03
  3.765869e+01    1.170194e+04
  3.775023e+01    4.374770e+04
  3.784177e+01    5.744631e+04
  3.793331e+01    1.491092e+04
  3.802485e+01    8.871631e+03
  3.811639e+01    7.857498e+03
  3.820793e+01    7.498536e+03
  3.829948e+01    7.343471e+03
  3.839102e+01    7.262574e+03
  3.848256e+01    7.229204e+03
  3.857410e+01    7.210128e+03
  3.866564e+01    7.213469e+03
  3.875718e+01    7.225095e+03
  3.884872e+01    7.282150e+03
  3.894027e+01    8.145107e+03
  3.903181e+01    9.473754e+03
  3.912335e+01    7.549514e+03
  3.921489e+01    7.134342e+03
  3.930643e+01    7.051772e+03
  3.939797e+01    7.017850e+03
  3.948951e+01    6.991938e+03
  3.958106e+01    6.987026e+03
  3.967260e+01    6.989418e+03
  3.976414e+01    6.956370e+03
  3.985568e+01    6.923940e+03
  3.994722e+01    6.881282e+03
  4.003876e+01    6.863640e+03
  4.013031e+01    7.174402e+03
  4.022185e+01    7.321783e+03
  4.031339e+01    6.842992e+03
  4.040493e+01    6.756762e+03
  4.049647e+01    6.726044e+03
  4.058801e+01    6.705315e+03
  4.067955e+01    6.702927e+03
  4.077110e+01    6.688941e+03
  4.086264e+01    6.687762e+03
  4.095418e+01    6.702592e+03
  4.104572e+01    6.744370e+03
  4.113726e+01    6.884739e+03
  4.122880e+01    7.853535e+03
  4.132034e+01    1.337849e+04
  4.141189e+01    9.553964e+03
  4.150343e+01    7.114366e+03
  4.159497e+01    6.885235e+03
  4.168651e+01    6.858330e+03
  4.177805e+01    6.802496e+03
  4.186959e+01    6.756219e+03
  4.196113e+01    6.731238e+03
  4.205268e+01    6.728215e+03
  4.214422e+01    6.781467e+03
  4.223576e+01    6.860384e+03
  4.232730e+01    6.998377e+03
  4.241884e+01    7.962441e+03
  4.251038e+01    7.621907e+03
  4.260192e+01    6.703743e+03
  4.269347e+01    6.553328e+03
  4.278501e+01    6.512954e+03
  4.287655e+01    6.479716e+03
  4.296809e+01    6.482279e+03
  4.305963e+01    6.482385e+03
  4.315117e+01    6.490412e+03
  4.324272e+01    6.532242e+03
  4.333426e+01    6.639945e+03
  4.342580e+01    7.111133e+03
  4.351734e+01    1.112767e+04
  4.360888e+01    1.013228e+04
  4.370042e+01    7.043556e+03
  4.379196e+01    6.755950e+03
  4.388351e+01    6.883899e+03
  4.397505e+01    7.297429e+03
  4.406659e+01    8.928179e+03
  4.415813e+01    1.590936e+04
  4.424967e+01    1.981417e+04
  4.434121e+01    1.130143e+04
  4.443275e+01    8.615252e+03
  4.452430e+01    1.148262e+04
  4.461584e+01    3.024253e+04
  4.470738e+01    1.616970e+04
  4.479892e+01    7.885866e+03
  4.489046e+01    6.856347e+03
  4.498200e+01    6.597586e+03
  4.507354e+01    6.475057e+03
  4.516509e+01    6.420396e+03
  4.525663e+01    6.387855e+03
  4.534817e+01    6.401328e+03
  4.543971e+01    6.448583e+03
  4.553125e+01    6.806345e+03
  4.562279e+01    1.003634e+04
  4.571433e+01    1.225809e+04
  4.580588e+01    7.328139e+03
  4.589742e+01    6.510903e+03
  4.598896e+01    6.399587e+03
  4.608050e+01    6.393675e+03
  4.617204e+01    6.424861e+03
  4.626358e+01    6.457998e+03
  4.635513e+01    6.383683e+03
  4.644667e+01    6.335280e+03
  4.653821e+01    6.363270e+03
  4.662975e+01    6.888888e+03
  4.672129e+01    8.382066e+03
  4.681283e+01    6.963964e+03
  4.690437e+01    6.568122e+03
  4.699592e+01    6.569097e+03
  4.708746e+01    6.577211e+03
  4.717900e+01    6.568884e+03
  4.727054e+01    6.572582e+03
  4.736208e+01    6.634251e+03
  4.745362e+01    6.752627e+03
  4.754516e+01    7.043984e+03
  4.763671e+01    7.588035e+03
  4.772825e+01    8.451606e+03
  4.781979e+01    7.091112e+03
  4.788844e+01    2.739731e+03