Folder: heo-xas-xrd/Output/ROCK_XRD/WAM39B_integrated/rampe2 (part 4)

File: wam39b_rampe_2_xrd_000009_integrated.dat
# == pyFAI calibration ==
# Distance Sample to Detector: 0.261615 m
# PONI: 2.023e-01, 2.348e-01 m
# Rotations: -0.026380 0.002005 0.000000 rad
#
# == Fit2d calibration ==
# Distance Sample-beamCenter: 261.707 mm
# Center: x=6119.331, y=5134.776 pix
# Tilt: 1.516 deg  TiltPlanRot: 4.347 deg
#
# Detector Rayonix SX165	 PixelSize= 3.950e-05, 3.950e-05 m
#    Detector has a mask: True
#    Detector has a dark current: False
#    detector has a flat field: False
#
# Wavelength: 1.12713e-10 m
# Mask applied: from detector
# Dark current applied: False
# Flat field applied: False
# Polarization factor: None
# Normalization factor: 1.0
# --> ROCK\\WAM39B_integrated\wam39b_rampe_2_xrd_000009_integrated.dat
#       2th_deg             I
  2.502596e+01    4.313230e+03
  2.511750e+01    1.774131e+04
  2.520905e+01    1.797301e+04
  2.530059e+01    1.809398e+04
  2.539213e+01    1.759525e+04
  2.548367e+01    1.753034e+04
  2.557521e+01    1.759294e+04
  2.566675e+01    1.774604e+04
  2.575829e+01    1.770849e+04
  2.584984e+01    1.758959e+04
  2.594138e+01    1.750528e+04
  2.603292e+01    1.744290e+04
  2.612446e+01    1.772253e+04
  2.621600e+01    1.974120e+04
  2.630754e+01    3.064684e+04
  2.639908e+01    5.007307e+04
  2.649063e+01    3.209905e+04
  2.658217e+01    1.908268e+04
  2.667371e+01    1.662633e+04
  2.676525e+01    1.585731e+04
  2.685679e+01    1.548730e+04
  2.694833e+01    1.522405e+04
  2.703988e+01    1.499059e+04
  2.713142e+01    1.483007e+04
  2.722296e+01    1.463776e+04
  2.731450e+01    1.448676e+04
  2.740604e+01    1.432975e+04
  2.749758e+01    1.422672e+04
  2.758912e+01    1.416208e+04
  2.768067e+01    1.411746e+04
  2.777221e+01    1.417095e+04
  2.786375e+01    1.481009e+04
  2.795529e+01    1.818297e+04
  2.804683e+01    1.637104e+04
  2.813837e+01    1.402774e+04
  2.822991e+01    1.347302e+04
  2.832146e+01    1.318950e+04
  2.841300e+01    1.293413e+04
  2.850454e+01    1.273138e+04
  2.859608e+01    1.255518e+04
  2.868762e+01    1.239077e+04
  2.877916e+01    1.228627e+04
  2.887070e+01    1.218361e+04
  2.896225e+01    1.206255e+04
  2.905379e+01    1.187034e+04
  2.914533e+01    1.164678e+04
  2.923687e+01    1.145476e+04
  2.932841e+01    1.130058e+04
  2.941995e+01    1.138103e+04
  2.951149e+01    1.257820e+04
  2.960304e+01    1.155937e+04
  2.969458e+01    1.069385e+04
  2.978612e+01    1.048920e+04
  2.987766e+01    1.036299e+04
  2.996920e+01    1.030148e+04
  3.006074e+01    1.030193e+04
  3.015228e+01    1.030861e+04
  3.024383e+01    1.040579e+04
  3.033537e+01    1.077086e+04
  3.042691e+01    1.223789e+04
  3.051845e+01    2.182254e+04
  3.060999e+01    4.994343e+04
  3.070153e+01    2.529524e+04
  3.079308e+01    1.350099e+04
  3.088462e+01    1.291091e+04
  3.097616e+01    2.419267e+04
  3.106770e+01    1.983556e+04
  3.115924e+01    1.095928e+04
  3.125078e+01    9.786904e+03
  3.134232e+01    9.429775e+03
  3.143387e+01    9.273450e+03
  3.152541e+01    9.155994e+03
  3.161695e+01    9.061435e+03
  3.170849e+01    8.986198e+03
  3.180003e+01    8.904939e+03
  3.189157e+01    8.848511e+03
  3.198311e+01    8.791732e+03
  3.207466e+01    8.733226e+03
  3.216620e+01    8.690549e+03
  3.225774e+01    8.709514e+03
  3.234928e+01    9.169442e+03
  3.244082e+01    1.013864e+04
  3.253236e+01    8.896332e+03
  3.262390e+01    8.609183e+03
  3.271545e+01    8.530456e+03
  3.280699e+01    8.422974e+03
  3.289853e+01    8.314501e+03
  3.299007e+01    8.217937e+03
  3.308161e+01    8.156198e+03
  3.317315e+01    8.108619e+03
  3.326469e+01    8.079027e+03
  3.335624e+01    8.054360e+03
  3.344778e+01    8.063659e+03
  3.353932e+01    8.144301e+03
  3.363086e+01    8.664950e+03
  3.372240e+01    1.367167e+04
  3.381394e+01    1.951257e+04
  3.390549e+01    9.812270e+03
  3.399703e+01    8.112375e+03
  3.408857e+01    7.803712e+03
  3.418011e+01    7.689234e+03
  3.427165e+01    7.630424e+03
  3.436319e+01    7.595917e+03
  3.445473e+01    7.559294e+03
  3.454628e+01    7.523516e+03
  3.463782e+01    7.482158e+03
  3.472936e+01    7.430371e+03
  3.482090e+01    7.377453e+03
  3.491244e+01    7.317112e+03
  3.500398e+01    7.255562e+03
  3.509552e+01    7.210497e+03
  3.518707e+01    7.172631e+03
  3.527861e+01    7.140887e+03
  3.537015e+01    7.079774e+03
  3.546169e+01    7.036168e+03
  3.555323e+01    7.007189e+03
  3.564477e+01    6.970325e+03
  3.573631e+01    6.960559e+03
  3.582786e+01    6.943778e+03
  3.591940e+01    6.953383e+03
  3.601094e+01    6.967194e+03
  3.610248e+01    7.011210e+03
  3.619402e+01    7.149533e+03
  3.628556e+01    8.229992e+03
  3.637710e+01    1.206554e+04
  3.646865e+01    8.427588e+03
  3.656019e+01    7.237993e+03
  3.665173e+01    7.091596e+03
  3.674327e+01    7.076412e+03
  3.683481e+01    7.086828e+03
  3.692635e+01    7.121137e+03
  3.701790e+01    7.183231e+03
  3.710944e+01    7.264044e+03
  3.720098e+01    7.414900e+03
  3.729252e+01    7.712265e+03
  3.738406e+01    8.489514e+03
  3.747560e+01    1.250162e+04
  3.756714e+01    4.897180e+04
  3.765869e+01    5.050357e+04
  3.775023e+01    1.311830e+04
  3.784177e+01    8.668748e+03
  3.793331e+01    7.820680e+03
  3.802485e+01    7.495349e+03
  3.811639e+01    7.351238e+03
  3.820793e+01    7.265557e+03
  3.829948e+01    7.210837e+03
  3.839102e+01    7.176538e+03
  3.848256e+01    7.174002e+03
  3.857410e+01    7.191201e+03
  3.866564e+01    7.308626e+03
  3.875718e+01    8.450536e+03
  3.884872e+01    9.029837e+03
  3.894027e+01    7.403547e+03
  3.903181e+01    7.150309e+03
  3.912335e+01    7.097642e+03
  3.921489e+01    7.072285e+03
  3.930643e+01    7.041027e+03
  3.939797e+01    7.028105e+03
  3.948951e+01    6.984783e+03
  3.958106e+01    6.954507e+03
  3.967260e+01    6.920277e+03
  3.976414e+01    6.886733e+03
  3.985568e+01    6.936804e+03
  3.994722e+01    7.346011e+03
  4.003876e+01    7.206213e+03
  4.013031e+01    6.873013e+03
  4.022185e+01    6.826005e+03
  4.031339e+01    6.797215e+03
  4.040493e+01    6.854198e+03
  4.049647e+01    6.768252e+03
  4.058801e+01    6.756775e+03
  4.067955e+01    6.756234e+03
  4.077110e+01    6.789555e+03
  4.086264e+01    6.831083e+03
  4.095418e+01    7.040454e+03
  4.104572e+01    8.997992e+03
  4.113726e+01    1.309667e+04
  4.122880e+01    8.086238e+03
  4.132034e+01    6.978729e+03
  4.141189e+01    6.818193e+03
  4.150343e+01    6.757933e+03
  4.159497e+01    6.725566e+03
  4.168651e+01    6.711258e+03
  4.177805e+01    6.681369e+03
  4.186959e+01    6.681369e+03
  4.196113e+01    6.682812e+03
  4.205268e+01    6.717185e+03
  4.214422e+01    6.967618e+03
  4.223576e+01    8.041134e+03
  4.232730e+01    7.045420e+03
  4.241884e+01    6.675681e+03
  4.251038e+01    6.614550e+03
  4.260192e+01    6.581546e+03
  4.269347e+01    6.585521e+03
  4.278501e+01    6.576555e+03
  4.287655e+01    6.576160e+03
  4.296809e+01    6.614108e+03
  4.305963e+01    6.681819e+03
  4.315117e+01    6.843561e+03
  4.324272e+01    8.159322e+03
  4.333426e+01    1.213576e+04
  4.342580e+01    8.156929e+03
  4.351734e+01    7.081428e+03
  4.360888e+01    7.321527e+03
  4.370042e+01    9.763934e+03
  4.379196e+01    2.238426e+04
  4.388351e+01    1.671911e+04
  4.397505e+01    8.739383e+03
  4.406659e+01    7.378849e+03
  4.415813e+01    7.340485e+03
  4.424967e+01    8.405902e+03
  4.434121e+01    1.944957e+04
  4.443275e+01    2.581171e+04
  4.452430e+01    9.559142e+03
  4.461584e+01    7.186660e+03
  4.470738e+01    6.740196e+03
  4.479892e+01    6.589572e+03
  4.489046e+01    6.510508e+03
  4.498200e+01    6.489444e+03
  4.507354e+01    6.465719e+03
  4.516509e+01    6.500528e+03
  4.525663e+01    6.642348e+03
  4.534817e+01    7.787676e+03
  4.543971e+01    1.280524e+04
  4.553125e+01    8.610320e+03
  4.562279e+01    6.659437e+03
  4.571433e+01    6.426062e+03
  4.580588e+01    6.354231e+03
  4.589742e+01    6.312376e+03
  4.598896e+01    6.279631e+03
  4.608050e+01    6.258853e+03
  4.617204e+01    6.262182e+03
  4.626358e+01    6.303842e+03
  4.635513e+01    6.514643e+03
  4.644667e+01    8.022253e+03
  4.653821e+01    7.389319e+03
  4.662975e+01    6.463985e+03
  4.672129e+01    6.344853e+03
  4.681283e+01    6.334027e+03
  4.690437e+01    6.337732e+03
  4.699592e+01    6.377447e+03
  4.708746e+01    6.441451e+03
  4.717900e+01    6.472035e+03
  4.727054e+01    6.570782e+03
  4.736208e+01    6.795489e+03
  4.745362e+01    7.937999e+03
  4.754516e+01    7.746880e+03
  4.763671e+01    7.305160e+03
  4.772825e+01    7.113188e+03
  4.781979e+01    6.740104e+03
  4.788844e+01    2.718635e+03

File: wam39b_rampe_2_xrd_000010_integrated.dat
# == pyFAI calibration ==
# Distance Sample to Detector: 0.261615 m
# PONI: 2.023e-01, 2.348e-01 m
# Rotations: -0.026380 0.002005 0.000000 rad
#
# == Fit2d calibration ==
# Distance Sample-beamCenter: 261.707 mm
# Center: x=6119.331, y=5134.776 pix
# Tilt: 1.516 deg  TiltPlanRot: 4.347 deg
#
# Detector Rayonix SX165	 PixelSize= 3.950e-05, 3.950e-05 m
#    Detector has a mask: True
#    Detector has a dark current: False
#    detector has a flat field: False
#
# Wavelength: 1.12713e-10 m
# Mask applied: from detector
# Dark current applied: False
# Flat field applied: False
# Polarization factor: None
# Normalization factor: 1.0
# --> ROCK\\WAM39B_integrated\wam39b_rampe_2_xrd_000010_integrated.dat
#       2th_deg             I
  2.502596e+01    4.241699e+03
  2.511750e+01    1.745978e+04
  2.520905e+01    1.768099e+04
  2.530059e+01    1.780245e+04
  2.539213e+01    1.732057e+04
  2.548367e+01    1.729570e+04
  2.557521e+01    1.739090e+04
  2.566675e+01    1.754774e+04
  2.575829e+01    1.751917e+04
  2.584984e+01    1.737149e+04
  2.594138e+01    1.724946e+04
  2.603292e+01    1.717502e+04
  2.612446e+01    1.743096e+04
  2.621600e+01    1.942322e+04
  2.630754e+01    3.011733e+04
  2.639908e+01    4.861223e+04
  2.649063e+01    3.167512e+04
  2.658217e+01    1.878108e+04
  2.667371e+01    1.635831e+04
  2.676525e+01    1.561171e+04
  2.685679e+01    1.523467e+04
  2.694833e+01    1.497234e+04
  2.703988e+01    1.475400e+04
  2.713142e+01    1.460003e+04
  2.722296e+01    1.441017e+04
  2.731450e+01    1.426294e+04
  2.740604e+01    1.409007e+04
  2.749758e+01    1.402625e+04
  2.758912e+01    1.396279e+04
  2.768067e+01    1.392635e+04
  2.777221e+01    1.399086e+04
  2.786375e+01    1.465012e+04
  2.795529e+01    1.798458e+04
  2.804683e+01    1.618101e+04
  2.813837e+01    1.387370e+04
  2.822991e+01    1.330629e+04
  2.832146e+01    1.299901e+04
  2.841300e+01    1.273784e+04
  2.850454e+01    1.253548e+04
  2.859608e+01    1.235402e+04
  2.868762e+01    1.219755e+04
  2.877916e+01    1.208336e+04
  2.887070e+01    1.199204e+04
  2.896225e+01    1.188817e+04
  2.905379e+01    1.168479e+04
  2.914533e+01    1.146223e+04
  2.923687e+01    1.127540e+04
  2.932841e+01    1.111416e+04
  2.941995e+01    1.118957e+04
  2.951149e+01    1.237770e+04
  2.960304e+01    1.136132e+04
  2.969458e+01    1.053047e+04
  2.978612e+01    1.031518e+04
  2.987766e+01    1.018426e+04
  2.996920e+01    1.013962e+04
  3.006074e+01    1.013992e+04
  3.015228e+01    1.014807e+04
  3.024383e+01    1.022583e+04
  3.033537e+01    1.057846e+04
  3.042691e+01    1.201029e+04
  3.051845e+01    2.118994e+04
  3.060999e+01    4.855830e+04
  3.070153e+01    2.527480e+04
  3.079308e+01    1.332934e+04
  3.088462e+01    1.273579e+04
  3.097616e+01    2.384113e+04
  3.106770e+01    1.939565e+04
  3.115924e+01    1.077664e+04
  3.125078e+01    9.603155e+03
  3.134232e+01    9.280430e+03
  3.143387e+01    9.130919e+03
  3.152541e+01    9.013503e+03
  3.161695e+01    8.914067e+03
  3.170849e+01    8.832814e+03
  3.180003e+01    8.761722e+03
  3.189157e+01    8.708310e+03
  3.198311e+01    8.646608e+03
  3.207466e+01    8.598306e+03
  3.216620e+01    8.557190e+03
  3.225774e+01    8.564448e+03
  3.234928e+01    9.035095e+03
  3.244082e+01    9.970917e+03
  3.253236e+01    8.734397e+03
  3.262390e+01    8.470350e+03
  3.271545e+01    8.392673e+03
  3.280699e+01    8.288745e+03
  3.289853e+01    8.186124e+03
  3.299007e+01    8.080691e+03
  3.308161e+01    8.025674e+03
  3.317315e+01    7.983000e+03
  3.326469e+01    7.947349e+03
  3.335624e+01    7.920901e+03
  3.344778e+01    7.928373e+03
  3.353932e+01    8.018352e+03
  3.363086e+01    8.538637e+03
  3.372240e+01    1.349154e+04
  3.381394e+01    1.910029e+04
  3.390549e+01    9.626183e+03
  3.399703e+01    7.975321e+03
  3.408857e+01    7.675740e+03
  3.418011e+01    7.569068e+03
  3.427165e+01    7.524059e+03
  3.436319e+01    7.474827e+03
  3.445473e+01    7.449332e+03
  3.454628e+01    7.404220e+03
  3.463782e+01    7.369667e+03
  3.472936e+01    7.339774e+03
  3.482090e+01    7.282432e+03
  3.491244e+01    7.220188e+03
  3.500398e+01    7.151638e+03
  3.509552e+01    7.099028e+03
  3.518707e+01    7.058235e+03
  3.527861e+01    7.031951e+03
  3.537015e+01    6.972551e+03
  3.546169e+01    6.920458e+03
  3.555323e+01    6.887537e+03
  3.564477e+01    6.861646e+03
  3.573631e+01    6.853178e+03
  3.582786e+01    6.831906e+03
  3.591940e+01    6.837345e+03
  3.601094e+01    6.853750e+03
  3.610248e+01    6.899225e+03
  3.619402e+01    7.033592e+03
  3.628556e+01    8.100492e+03
  3.637710e+01    1.185226e+04
  3.646865e+01    8.277453e+03
  3.656019e+01    7.110718e+03
  3.665173e+01    6.975390e+03
  3.674327e+01    6.964024e+03
  3.683481e+01    6.973048e+03
  3.692635e+01    7.005842e+03
  3.701790e+01    7.060981e+03
  3.710944e+01    7.149453e+03
  3.720098e+01    7.295791e+03
  3.729252e+01    7.588562e+03
  3.738406e+01    8.356971e+03
  3.747560e+01    1.234421e+04
  3.756714e+01    4.839525e+04
  3.765869e+01    4.925051e+04
  3.775023e+01    1.283395e+04
  3.784177e+01    8.519559e+03
  3.793331e+01    7.688944e+03
  3.802485e+01    7.367304e+03
  3.811639e+01    7.238062e+03
  3.820793e+01    7.143066e+03
  3.829948e+01    7.091308e+03
  3.839102e+01    7.065942e+03
  3.848256e+01    7.056092e+03
  3.857410e+01    7.085382e+03
  3.866564e+01    7.195926e+03
  3.875718e+01    8.324104e+03
  3.884872e+01    8.865275e+03
  3.894027e+01    7.271807e+03
  3.903181e+01    7.036038e+03
  3.912335e+01    6.983642e+03
  3.921489e+01    6.949970e+03
  3.930643e+01    6.923334e+03
  3.939797e+01    6.908728e+03
  3.948951e+01    6.875112e+03
  3.958106e+01    6.836342e+03
  3.967260e+01    6.815203e+03
  3.976414e+01    6.784648e+03
  3.985568e+01    6.817117e+03
  3.994722e+01    7.221097e+03
  4.003876e+01    7.074632e+03
  4.013031e+01    6.758485e+03
  4.022185e+01    6.710505e+03
  4.031339e+01    6.691107e+03
  4.040493e+01    6.668045e+03
  4.049647e+01    6.659802e+03
  4.058801e+01    6.641776e+03
  4.067955e+01    6.651586e+03
  4.077110e+01    6.675728e+03
  4.086264e+01    6.711834e+03
  4.095418e+01    6.926283e+03
  4.104572e+01    8.882921e+03
  4.113726e+01    1.285457e+04
  4.122880e+01    7.934496e+03
  4.132034e+01    6.855299e+03
  4.141189e+01    6.701621e+03
  4.150343e+01    6.648960e+03
  4.159497e+01    6.612440e+03
  4.168651e+01    6.609543e+03
  4.177805e+01    6.574838e+03
  4.186959e+01    6.570676e+03
  4.196113e+01    6.579765e+03
  4.205268e+01    6.608873e+03
  4.214422e+01    6.869049e+03
  4.223576e+01    7.899127e+03
  4.232730e+01    6.926436e+03
  4.241884e+01    6.555829e+03
  4.251038e+01    6.502566e+03
  4.260192e+01    6.471986e+03
  4.269347e+01    6.472887e+03
  4.278501e+01    6.465381e+03
  4.287655e+01    6.475835e+03
  4.296809e+01    6.501937e+03
  4.305963e+01    6.566954e+03
  4.315117e+01    6.728792e+03
  4.324272e+01    8.038143e+03
  4.333426e+01    1.190527e+04
  4.342580e+01    7.987671e+03
  4.351734e+01    6.958020e+03
  4.360888e+01    7.185672e+03
  4.370042e+01    9.501250e+03
  4.379196e+01    2.161886e+04
  4.388351e+01    1.669536e+04
  4.397505e+01    8.647663e+03
  4.406659e+01    7.273541e+03
  4.415813e+01    7.213066e+03
  4.424967e+01    8.280410e+03
  4.434121e+01    1.923223e+04
  4.443275e+01    2.520449e+04
  4.452430e+01    9.358854e+03
  4.461584e+01    7.056142e+03
  4.470738e+01    6.623071e+03
  4.479892e+01    6.474750e+03
  4.489046e+01    6.398230e+03
  4.498200e+01    6.376856e+03
  4.507354e+01    6.362166e+03
  4.516509e+01    6.388596e+03
  4.525663e+01    6.518647e+03
  4.534817e+01    7.677750e+03
  4.543971e+01    1.257515e+04
  4.553125e+01    8.435110e+03
  4.562279e+01    6.541420e+03
  4.571433e+01    6.315036e+03
  4.580588e+01    6.240431e+03
  4.589742e+01    6.212135e+03
  4.598896e+01    6.174948e+03
  4.608050e+01    6.148467e+03
  4.617204e+01    6.161390e+03
  4.626358e+01    6.186221e+03
  4.635513e+01    6.408712e+03
  4.644667e+01    7.892970e+03
  4.653821e+01    7.241048e+03
  4.662975e+01    6.361508e+03
  4.672129e+01    6.245460e+03
  4.681283e+01    6.246458e+03
  4.690437e+01    6.250005e+03
  4.699592e+01    6.268025e+03
  4.708746e+01    6.315800e+03
  4.717900e+01    6.366812e+03
  4.727054e+01    6.462300e+03
  4.736208e+01    6.684948e+03
  4.745362e+01    7.794222e+03
  4.754516e+01    7.617839e+03
  4.763671e+01    7.184069e+03
  4.772825e+01    6.986122e+03
  4.781979e+01    6.642339e+03
  4.788844e+01    2.677194e+03

File: wam39b_rampe_2_xrd_000011_integrated.dat
# == pyFAI calibration ==
# Distance Sample to Detector: 0.261615 m
# PONI: 2.023e-01, 2.348e-01 m
# Rotations: -0.026380 0.002005 0.000000 rad
#
# == Fit2d calibration ==
# Distance Sample-beamCenter: 261.707 mm
# Center: x=6119.331, y=5134.776 pix
# Tilt: 1.516 deg  TiltPlanRot: 4.347 deg
#
# Detector Rayonix SX165	 PixelSize= 3.950e-05, 3.950e-05 m
#    Detector has a mask: True
#    Detector has a dark current: False
#    detector has a flat field: False
#
# Wavelength: 1.12713e-10 m
# Mask applied: from detector
# Dark current applied: False
# Flat field applied: False
# Polarization factor: None
# Normalization factor: 1.0
# --> ROCK\\WAM39B_integrated\wam39b_rampe_2_xrd_000011_integrated.dat
#       2th_deg             I
  2.502596e+01    4.834939e+03
  2.511750e+01    1.981756e+04
  2.520905e+01    2.008182e+04
  2.530059e+01    2.020055e+04
  2.539213e+01    1.965384e+04
  2.548367e+01    1.962779e+04
  2.557521e+01    1.970602e+04
  2.566675e+01    1.993959e+04
  2.575829e+01    1.993467e+04
  2.584984e+01    1.976103e+04
  2.594138e+01    1.960404e+04
  2.603292e+01    1.942780e+04
  2.612446e+01    1.960095e+04
  2.621600e+01    2.118446e+04
  2.630754e+01    3.007346e+04
  2.639908e+01    5.119923e+04
  2.649063e+01    4.184774e+04
  2.658217e+01    2.255117e+04
  2.667371e+01    1.882996e+04
  2.676525e+01    1.778998e+04
  2.685679e+01    1.730948e+04
  2.694833e+01    1.700295e+04
  2.703988e+01    1.674632e+04
  2.713142e+01    1.656144e+04
  2.722296e+01    1.634055e+04
  2.731450e+01    1.617074e+04
  2.740604e+01    1.598709e+04
  2.749758e+01    1.588243e+04
  2.758912e+01    1.581662e+04
  2.768067e+01    1.578043e+04
  2.777221e+01    1.583554e+04
  2.786375e+01    1.634981e+04
  2.795529e+01    1.941762e+04
  2.804683e+01    1.943163e+04
  2.813837e+01    1.597347e+04
  2.822991e+01    1.516721e+04
  2.832146e+01    1.477092e+04
  2.841300e+01    1.444782e+04
  2.850454e+01    1.420298e+04
  2.859608e+01    1.401390e+04
  2.868762e+01    1.379979e+04
  2.877916e+01    1.365847e+04
  2.887070e+01    1.356786e+04
  2.896225e+01    1.344902e+04
  2.905379e+01    1.323825e+04
  2.914533e+01    1.298483e+04
  2.923687e+01    1.275297e+04
  2.932841e+01    1.255398e+04
  2.941995e+01    1.251744e+04
  2.951149e+01    1.361994e+04
  2.960304e+01    1.326469e+04
  2.969458e+01    1.196649e+04
  2.978612e+01    1.168268e+04
  2.987766e+01    1.152932e+04
  2.996920e+01    1.144891e+04
  3.006074e+01    1.143356e+04
  3.015228e+01    1.145668e+04
  3.024383e+01    1.150982e+04
  3.033537e+01    1.180541e+04
  3.042691e+01    1.290228e+04
  3.051845e+01    1.917447e+04
  3.060999e+01    5.010639e+04
  3.070153e+01    3.626077e+04
  3.079308e+01    1.644026e+04
  3.088462e+01    1.379931e+04
  3.097616e+01    2.253025e+04
  3.106770e+01    2.620366e+04
  3.115924e+01    1.303610e+04
  3.125078e+01    1.099239e+04
  3.134232e+01    1.053545e+04
  3.143387e+01    1.034142e+04
  3.152541e+01    1.018738e+04
  3.161695e+01    1.007897e+04
  3.170849e+01    9.992144e+03
  3.180003e+01    9.911159e+03
  3.189157e+01    9.848374e+03
  3.198311e+01    9.786162e+03
  3.207466e+01    9.727091e+03
  3.216620e+01    9.673428e+03
  3.225774e+01    9.661505e+03
  3.234928e+01    9.928215e+03
  3.244082e+01    1.128047e+04
  3.253236e+01    1.009734e+04
  3.262390e+01    9.590202e+03
  3.271545e+01    9.488122e+03
  3.280699e+01    9.390462e+03
  3.289853e+01    9.252069e+03
  3.299007e+01    9.128974e+03
  3.308161e+01    9.059267e+03
  3.317315e+01    9.008771e+03
  3.326469e+01    8.976336e+03
  3.335624e+01    8.944731e+03
  3.344778e+01    8.937312e+03
  3.353932e+01    8.993688e+03
  3.363086e+01    9.343355e+03
  3.372240e+01    1.248770e+04
  3.381394e+01    2.292373e+04
  3.390549e+01    1.245758e+04
  3.399703e+01    9.170870e+03
  3.408857e+01    8.710760e+03
  3.418011e+01    8.561441e+03
  3.427165e+01    8.480315e+03
  3.436319e+01    8.438011e+03
  3.445473e+01    8.401458e+03
  3.454628e+01    8.367326e+03
  3.463782e+01    8.330587e+03
  3.472936e+01    8.299063e+03
  3.482090e+01    8.245674e+03
  3.491244e+01    8.175017e+03
  3.500398e+01    8.098128e+03
  3.509552e+01    8.019994e+03
  3.518707e+01    7.970111e+03
  3.527861e+01    7.935026e+03
  3.537015e+01    7.868283e+03
  3.546169e+01    7.814869e+03
  3.555323e+01    7.775998e+03
  3.564477e+01    7.740085e+03
  3.573631e+01    7.717002e+03
  3.582786e+01    7.700616e+03
  3.591940e+01    7.705708e+03
  3.601094e+01    7.730683e+03
  3.610248e+01    7.760426e+03
  3.619402e+01    7.874949e+03
  3.628556e+01    8.481711e+03
  3.637710e+01    1.268444e+04
  3.646865e+01    1.049726e+04
  3.656019e+01    8.141913e+03
  3.665173e+01    7.885361e+03
  3.674327e+01    7.850354e+03
  3.683481e+01    7.858952e+03
  3.692635e+01    7.890481e+03
  3.701790e+01    7.942446e+03
  3.710944e+01    8.030596e+03
  3.720098e+01    8.170686e+03
  3.729252e+01    8.429352e+03
  3.738406e+01    9.051857e+03
  3.747560e+01    1.152055e+04
  3.756714e+01    3.518156e+04
  3.765869e+01    7.091825e+04
  3.775023e+01    1.955794e+04
  3.784177e+01    1.019744e+04
  3.793331e+01    8.840650e+03
  3.802485e+01    8.384429e+03
  3.811639e+01    8.186607e+03
  3.820793e+01    8.068234e+03
  3.829948e+01    8.026871e+03
  3.839102e+01    7.972688e+03
  3.848256e+01    7.968940e+03
  3.857410e+01    7.982491e+03
  3.866564e+01    8.052062e+03
  3.875718e+01    8.712783e+03
  3.884872e+01    1.044500e+04
  3.894027e+01    8.485389e+03
  3.903181e+01    7.984838e+03
  3.912335e+01    7.892314e+03
  3.921489e+01    7.853016e+03
  3.930643e+01    7.812576e+03
  3.939797e+01    7.804948e+03
  3.948951e+01    7.766896e+03
  3.958106e+01    7.724234e+03
  3.967260e+01    7.677595e+03
  3.976414e+01    7.650210e+03
  3.985568e+01    7.668707e+03
  3.994722e+01    7.940733e+03
  4.003876e+01    8.167315e+03
  4.013031e+01    7.678184e+03
  4.022185e+01    7.576388e+03
  4.031339e+01    7.537504e+03
  4.040493e+01    7.526725e+03
  4.049647e+01    7.506201e+03
  4.058801e+01    7.498492e+03
  4.067955e+01    7.487617e+03
  4.077110e+01    7.506426e+03
  4.086264e+01    7.551971e+03
  4.095418e+01    7.687882e+03
  4.104572e+01    8.693688e+03
  4.113726e+01    1.437974e+04
  4.122880e+01    1.037546e+04
  4.132034e+01    7.874115e+03
  4.141189e+01    7.601165e+03
  4.150343e+01    7.516337e+03
  4.159497e+01    7.474415e+03
  4.168651e+01    7.457744e+03
  4.177805e+01    7.423915e+03
  4.186959e+01    7.409182e+03
  4.196113e+01    7.416331e+03
  4.205268e+01    7.434171e+03
  4.214422e+01    7.550037e+03
  4.223576e+01    8.643312e+03
  4.232730e+01    8.224517e+03
  4.241884e+01    7.431822e+03
  4.251038e+01    7.341991e+03
  4.260192e+01    7.313171e+03
  4.269347e+01    7.290178e+03
  4.278501e+01    7.289361e+03
  4.287655e+01    7.285950e+03
  4.296809e+01    7.315483e+03
  4.305963e+01    7.363082e+03
  4.315117e+01    7.481123e+03
  4.324272e+01    8.123815e+03
  4.333426e+01    1.271062e+04
  4.342580e+01    1.049774e+04
  4.351734e+01    7.922318e+03
  4.360888e+01    7.908535e+03
  4.370042e+01    9.086852e+03
  4.379196e+01    1.852895e+04
  4.388351e+01    2.381757e+04
  4.397505e+01    1.145948e+04
  4.406659e+01    8.442961e+03
  4.415813e+01    8.054830e+03
  4.424967e+01    8.600300e+03
  4.434121e+01    1.427822e+04
  4.443275e+01    3.252237e+04
  4.452430e+01    1.407482e+04
  4.461584e+01    8.327576e+03
  4.470738e+01    7.555529e+03
  4.479892e+01    7.343154e+03
  4.489046e+01    7.223774e+03
  4.498200e+01    7.191799e+03
  4.507354e+01    7.164806e+03
  4.516509e+01    7.181736e+03
  4.525663e+01    7.254104e+03
  4.534817e+01    7.818584e+03
  4.543971e+01    1.252009e+04
  4.553125e+01    1.170183e+04
  4.562279e+01    7.645923e+03
  4.571433e+01    7.177633e+03
  4.580588e+01    7.066930e+03
  4.589742e+01    7.016864e+03
  4.598896e+01    6.990938e+03
  4.608050e+01    6.947841e+03
  4.617204e+01    6.937086e+03
  4.626358e+01    6.966604e+03
  4.635513e+01    7.081476e+03
  4.644667e+01    8.103809e+03
  4.653821e+01    8.899215e+03
  4.662975e+01    7.325035e+03
  4.672129e+01    7.092717e+03
  4.681283e+01    7.057505e+03
  4.690437e+01    7.054424e+03
  4.699592e+01    7.086957e+03
  4.708746e+01    7.130086e+03
  4.717900e+01    7.189505e+03
  4.727054e+01    7.275110e+03
  4.736208e+01    7.455041e+03
  4.745362e+01    8.244810e+03
  4.754516e+01    9.082194e+03
  4.763671e+01    8.239272e+03
  4.772825e+01    7.904469e+03
  4.781979e+01    7.500360e+03
  4.788844e+01    3.007426e+03