Folder: heo-xas-xrd/Output/ROCK_XRD/WAM39B_integrated/rampe2 (part 2)

File: wam39b_rampe_2_xrd_000003_integrated.dat
# == pyFAI calibration ==
# Distance Sample to Detector: 0.261615 m
# PONI: 2.023e-01, 2.348e-01 m
# Rotations: -0.026380 0.002005 0.000000 rad
#
# == Fit2d calibration ==
# Distance Sample-beamCenter: 261.707 mm
# Center: x=6119.331, y=5134.776 pix
# Tilt: 1.516 deg  TiltPlanRot: 4.347 deg
#
# Detector Rayonix SX165	 PixelSize= 3.950e-05, 3.950e-05 m
#    Detector has a mask: True
#    Detector has a dark current: False
#    detector has a flat field: False
#
# Wavelength: 1.12713e-10 m
# Mask applied: from detector
# Dark current applied: False
# Flat field applied: False
# Polarization factor: None
# Normalization factor: 1.0
# --> ROCK\\WAM39B_integrated\wam39b_rampe_2_xrd_000003_integrated.dat
#       2th_deg             I
  2.502596e+01    4.471017e+03
  2.511750e+01    1.835061e+04
  2.520905e+01    1.861674e+04
  2.530059e+01    1.871916e+04
  2.539213e+01    1.817853e+04
  2.548367e+01    1.802786e+04
  2.557521e+01    1.791637e+04
  2.566675e+01    1.784201e+04
  2.575829e+01    1.763330e+04
  2.584984e+01    1.742949e+04
  2.594138e+01    1.748054e+04
  2.603292e+01    1.771927e+04
  2.612446e+01    1.846183e+04
  2.621600e+01    2.209528e+04
  2.630754e+01    4.243725e+04
  2.639908e+01    5.502546e+04
  2.649063e+01    2.359956e+04
  2.658217e+01    1.801569e+04
  2.667371e+01    1.676912e+04
  2.676525e+01    1.625989e+04
  2.685679e+01    1.594405e+04
  2.694833e+01    1.568455e+04
  2.703988e+01    1.548213e+04
  2.713142e+01    1.532487e+04
  2.722296e+01    1.512794e+04
  2.731450e+01    1.496422e+04
  2.740604e+01    1.479390e+04
  2.749758e+01    1.467061e+04
  2.758912e+01    1.457950e+04
  2.768067e+01    1.448415e+04
  2.777221e+01    1.451638e+04
  2.786375e+01    1.541685e+04
  2.795529e+01    1.900295e+04
  2.804683e+01    1.570269e+04
  2.813837e+01    1.403901e+04
  2.822991e+01    1.359732e+04
  2.832146e+01    1.338590e+04
  2.841300e+01    1.318909e+04
  2.850454e+01    1.301613e+04
  2.859608e+01    1.286206e+04
  2.868762e+01    1.267539e+04
  2.877916e+01    1.249697e+04
  2.887070e+01    1.233405e+04
  2.896225e+01    1.214367e+04
  2.905379e+01    1.196325e+04
  2.914533e+01    1.178740e+04
  2.923687e+01    1.165329e+04
  2.932841e+01    1.156325e+04
  2.941995e+01    1.184060e+04
  2.951149e+01    1.305203e+04
  2.960304e+01    1.158367e+04
  2.969458e+01    1.098146e+04
  2.978612e+01    1.079477e+04
  2.987766e+01    1.067611e+04
  2.996920e+01    1.062595e+04
  3.006074e+01    1.062992e+04
  3.015228e+01    1.067293e+04
  3.024383e+01    1.081751e+04
  3.033537e+01    1.144953e+04
  3.042691e+01    1.525324e+04
  3.051845e+01    4.853507e+04
  3.060999e+01    4.370982e+04
  3.070153e+01    1.475037e+04
  3.079308e+01    1.178811e+04
  3.088462e+01    1.398807e+04
  3.097616e+01    2.744910e+04
  3.106770e+01    1.663435e+04
  3.115924e+01    1.077176e+04
  3.125078e+01    9.950560e+03
  3.134232e+01    9.676452e+03
  3.143387e+01    9.528757e+03
  3.152541e+01    9.416930e+03
  3.161695e+01    9.315726e+03
  3.170849e+01    9.241645e+03
  3.180003e+01    9.169766e+03
  3.189157e+01    9.101724e+03
  3.198311e+01    9.043560e+03
  3.207466e+01    8.988712e+03
  3.216620e+01    8.945159e+03
  3.225774e+01    8.981278e+03
  3.234928e+01    9.736968e+03
  3.244082e+01    1.006492e+04
  3.253236e+01    8.890816e+03
  3.262390e+01    8.685916e+03
  3.271545e+01    8.602165e+03
  3.280699e+01    8.536540e+03
  3.289853e+01    8.485423e+03
  3.299007e+01    8.421132e+03
  3.308161e+01    8.383294e+03
  3.317315e+01    8.340272e+03
  3.326469e+01    8.307689e+03
  3.335624e+01    8.294173e+03
  3.344778e+01    8.316736e+03
  3.353932e+01    8.451373e+03
  3.363086e+01    9.346782e+03
  3.372240e+01    1.714979e+04
  3.381394e+01    1.699616e+04
  3.390549e+01    9.234665e+03
  3.399703e+01    8.221198e+03
  3.408857e+01    7.992725e+03
  3.418011e+01    7.875239e+03
  3.427165e+01    7.805154e+03
  3.436319e+01    7.755434e+03
  3.445473e+01    7.695801e+03
  3.454628e+01    7.642024e+03
  3.463782e+01    7.595894e+03
  3.472936e+01    7.558928e+03
  3.482090e+01    7.503921e+03
  3.491244e+01    7.466207e+03
  3.500398e+01    7.431896e+03
  3.509552e+01    7.394425e+03
  3.518707e+01    7.375227e+03
  3.527861e+01    7.346305e+03
  3.537015e+01    7.291924e+03
  3.546169e+01    7.249695e+03
  3.555323e+01    7.219491e+03
  3.564477e+01    7.186561e+03
  3.573631e+01    7.172055e+03
  3.582786e+01    7.163314e+03
  3.591940e+01    7.167886e+03
  3.601094e+01    7.183246e+03
  3.610248e+01    7.234406e+03
  3.619402e+01    7.458911e+03
  3.628556e+01    9.443878e+03
  3.637710e+01    1.183379e+04
  3.646865e+01    7.993385e+03
  3.656019e+01    7.382136e+03
  3.665173e+01    7.293326e+03
  3.674327e+01    7.291541e+03
  3.683481e+01    7.309606e+03
  3.692635e+01    7.352657e+03
  3.701790e+01    7.412557e+03
  3.710944e+01    7.522914e+03
  3.720098e+01    7.704769e+03
  3.729252e+01    8.074659e+03
  3.738406e+01    9.214237e+03
  3.747560e+01    1.695712e+04
  3.756714e+01    6.504427e+04
  3.765869e+01    3.454086e+04
  3.775023e+01    1.105661e+04
  3.784177e+01    8.538594e+03
  3.793331e+01    7.940543e+03
  3.802485e+01    7.662021e+03
  3.811639e+01    7.548771e+03
  3.820793e+01    7.464310e+03
  3.829948e+01    7.415376e+03
  3.839102e+01    7.398527e+03
  3.848256e+01    7.387774e+03
  3.857410e+01    7.419554e+03
  3.866564e+01    7.632734e+03
  3.875718e+01    9.328929e+03
  3.884872e+01    8.595639e+03
  3.894027e+01    7.481796e+03
  3.903181e+01    7.357362e+03
  3.912335e+01    7.303722e+03
  3.921489e+01    7.277222e+03
  3.930643e+01    7.257122e+03
  3.939797e+01    7.254175e+03
  3.948951e+01    7.198159e+03
  3.958106e+01    7.177678e+03
  3.967260e+01    7.138915e+03
  3.976414e+01    7.124149e+03
  3.985568e+01    7.213654e+03
  3.994722e+01    7.668680e+03
  4.003876e+01    7.262803e+03
  4.013031e+01    7.072241e+03
  4.022185e+01    7.039143e+03
  4.031339e+01    7.022775e+03
  4.040493e+01    6.998272e+03
  4.049647e+01    6.978979e+03
  4.058801e+01    6.964404e+03
  4.067955e+01    6.969530e+03
  4.077110e+01    6.998175e+03
  4.086264e+01    7.059097e+03
  4.095418e+01    7.430616e+03
  4.104572e+01    1.109183e+04
  4.113726e+01    1.188398e+04
  4.122880e+01    7.582578e+03
  4.132034e+01    7.039318e+03
  4.141189e+01    6.923580e+03
  4.150343e+01    6.890674e+03
  4.159497e+01    6.873949e+03
  4.168651e+01    6.874800e+03
  4.177805e+01    6.853936e+03
  4.186959e+01    6.841231e+03
  4.196113e+01    6.844933e+03
  4.205268e+01    6.896648e+03
  4.214422e+01    7.458497e+03
  4.223576e+01    8.060758e+03
  4.232730e+01    7.006678e+03
  4.241884e+01    6.839616e+03
  4.251038e+01    6.813881e+03
  4.260192e+01    6.791042e+03
  4.269347e+01    6.793060e+03
  4.278501e+01    6.794008e+03
  4.287655e+01    6.798864e+03
  4.296809e+01    6.847368e+03
  4.305963e+01    6.934586e+03
  4.315117e+01    7.207380e+03
  4.324272e+01    9.897844e+03
  4.333426e+01    1.144213e+04
  4.342580e+01    7.688455e+03
  4.351734e+01    7.396353e+03
  4.360888e+01    8.820247e+03
  4.370042e+01    2.560011e+04
  4.379196e+01    1.935301e+04
  4.388351e+01    8.489625e+03
  4.397505e+01    7.286702e+03
  4.406659e+01    7.167675e+03
  4.415813e+01    7.463340e+03
  4.424967e+01    9.847339e+03
  4.434121e+01    2.716857e+04
  4.443275e+01    1.877000e+04
  4.452430e+01    8.317786e+03
  4.461584e+01    7.162487e+03
  4.470738e+01    6.869058e+03
  4.479892e+01    6.761228e+03
  4.489046e+01    6.708484e+03
  4.498200e+01    6.700568e+03
  4.507354e+01    6.684142e+03
  4.516509e+01    6.725677e+03
  4.525663e+01    6.995775e+03
  4.534817e+01    9.536186e+03
  4.543971e+01    1.243759e+04
  4.553125e+01    7.596253e+03
  4.562279e+01    6.717688e+03
  4.571433e+01    6.588096e+03
  4.580588e+01    6.521077e+03
  4.589742e+01    6.479046e+03
  4.598896e+01    6.449152e+03
  4.608050e+01    6.429627e+03
  4.617204e+01    6.431629e+03
  4.626358e+01    6.494770e+03
  4.635513e+01    6.992235e+03
  4.644667e+01    8.421593e+03
  4.653821e+01    6.962656e+03
  4.662975e+01    6.529969e+03
  4.672129e+01    6.474519e+03
  4.681283e+01    6.491790e+03
  4.690437e+01    6.501170e+03
  4.699592e+01    6.554114e+03
  4.708746e+01    6.604011e+03
  4.717900e+01    6.668119e+03
  4.727054e+01    6.781479e+03
  4.736208e+01    7.181928e+03
  4.745362e+01    8.316790e+03
  4.754516e+01    7.561901e+03
  4.763671e+01    7.500477e+03
  4.772825e+01    7.306883e+03
  4.781979e+01    6.938391e+03
  4.788844e+01    2.792411e+03

File: wam39b_rampe_2_xrd_000004_integrated.dat
# == pyFAI calibration ==
# Distance Sample to Detector: 0.261615 m
# PONI: 2.023e-01, 2.348e-01 m
# Rotations: -0.026380 0.002005 0.000000 rad
#
# == Fit2d calibration ==
# Distance Sample-beamCenter: 261.707 mm
# Center: x=6119.331, y=5134.776 pix
# Tilt: 1.516 deg  TiltPlanRot: 4.347 deg
#
# Detector Rayonix SX165	 PixelSize= 3.950e-05, 3.950e-05 m
#    Detector has a mask: True
#    Detector has a dark current: False
#    detector has a flat field: False
#
# Wavelength: 1.12713e-10 m
# Mask applied: from detector
# Dark current applied: False
# Flat field applied: False
# Polarization factor: None
# Normalization factor: 1.0
# --> ROCK\\WAM39B_integrated\wam39b_rampe_2_xrd_000004_integrated.dat
#       2th_deg             I
  2.502596e+01    4.817706e+03
  2.511750e+01    1.980748e+04
  2.520905e+01    2.008012e+04
  2.530059e+01    2.017652e+04
  2.539213e+01    1.960300e+04
  2.548367e+01    1.945584e+04
  2.557521e+01    1.931174e+04
  2.566675e+01    1.924310e+04
  2.575829e+01    1.901036e+04
  2.584984e+01    1.880821e+04
  2.594138e+01    1.881872e+04
  2.603292e+01    1.902206e+04
  2.612446e+01    1.956425e+04
  2.621600e+01    2.218608e+04
  2.630754e+01    3.681552e+04
  2.639908e+01    6.289338e+04
  2.649063e+01    3.132366e+04
  2.658217e+01    2.019732e+04
  2.667371e+01    1.825953e+04
  2.676525e+01    1.758226e+04
  2.685679e+01    1.721928e+04
  2.694833e+01    1.693097e+04
  2.703988e+01    1.670350e+04
  2.713142e+01    1.652818e+04
  2.722296e+01    1.631118e+04
  2.731450e+01    1.613376e+04
  2.740604e+01    1.595173e+04
  2.749758e+01    1.580683e+04
  2.758912e+01    1.569633e+04
  2.768067e+01    1.559864e+04
  2.777221e+01    1.560490e+04
  2.786375e+01    1.622146e+04
  2.795529e+01    1.994340e+04
  2.804683e+01    1.772653e+04
  2.813837e+01    1.523515e+04
  2.822991e+01    1.469495e+04
  2.832146e+01    1.443829e+04
  2.841300e+01    1.422040e+04
  2.850454e+01    1.402229e+04
  2.859608e+01    1.385943e+04
  2.868762e+01    1.365081e+04
  2.877916e+01    1.346920e+04
  2.887070e+01    1.328539e+04
  2.896225e+01    1.308844e+04
  2.905379e+01    1.288947e+04
  2.914533e+01    1.270726e+04
  2.923687e+01    1.256054e+04
  2.932841e+01    1.242653e+04
  2.941995e+01    1.256716e+04
  2.951149e+01    1.393139e+04
  2.960304e+01    1.276434e+04
  2.969458e+01    1.185939e+04
  2.978612e+01    1.163778e+04
  2.987766e+01    1.149471e+04
  2.996920e+01    1.142997e+04
  3.006074e+01    1.141934e+04
  3.015228e+01    1.144408e+04
  3.024383e+01    1.154136e+04
  3.033537e+01    1.196236e+04
  3.042691e+01    1.396890e+04
  3.051845e+01    3.292849e+04
  3.060999e+01    6.352224e+04
  3.070153e+01    2.062958e+04
  3.079308e+01    1.322321e+04
  3.088462e+01    1.389525e+04
  3.097616e+01    2.688175e+04
  3.106770e+01    2.144915e+04
  3.115924e+01    1.207653e+04
  3.125078e+01    1.081394e+04
  3.134232e+01    1.045520e+04
  3.143387e+01    1.029178e+04
  3.152541e+01    1.016062e+04
  3.161695e+01    1.004783e+04
  3.170849e+01    9.960803e+03
  3.180003e+01    9.878658e+03
  3.189157e+01    9.808152e+03
  3.198311e+01    9.739840e+03
  3.207466e+01    9.673379e+03
  3.216620e+01    9.628055e+03
  3.225774e+01    9.626250e+03
  3.234928e+01    1.015323e+04
  3.244082e+01    1.112213e+04
  3.253236e+01    9.711613e+03
  3.262390e+01    9.367574e+03
  3.271545e+01    9.261930e+03
  3.280699e+01    9.193205e+03
  3.289853e+01    9.136618e+03
  3.299007e+01    9.072770e+03
  3.308161e+01    9.018671e+03
  3.317315e+01    8.971686e+03
  3.326469e+01    8.942867e+03
  3.335624e+01    8.919170e+03
  3.344778e+01    8.924780e+03
  3.353932e+01    9.023150e+03
  3.363086e+01    9.615371e+03
  3.372240e+01    1.529842e+04
  3.381394e+01    2.123860e+04
  3.390549e+01    1.071777e+04
  3.399703e+01    8.955225e+03
  3.408857e+01    8.624191e+03
  3.418011e+01    8.495483e+03
  3.427165e+01    8.419902e+03
  3.436319e+01    8.347748e+03
  3.445473e+01    8.282447e+03
  3.454628e+01    8.233817e+03
  3.463782e+01    8.174210e+03
  3.472936e+01    8.131274e+03
  3.482090e+01    8.090712e+03
  3.491244e+01    8.035076e+03
  3.500398e+01    7.996729e+03
  3.509552e+01    7.956708e+03
  3.518707e+01    7.932619e+03
  3.527861e+01    7.902704e+03
  3.537015e+01    7.840437e+03
  3.546169e+01    7.800116e+03
  3.555323e+01    7.754890e+03
  3.564477e+01    7.722854e+03
  3.573631e+01    7.709836e+03
  3.582786e+01    7.679848e+03
  3.591940e+01    7.690578e+03
  3.601094e+01    7.721431e+03
  3.610248e+01    7.763214e+03
  3.619402e+01    7.923684e+03
  3.628556e+01    9.149272e+03
  3.637710e+01    1.329553e+04
  3.646865e+01    9.222594e+03
  3.656019e+01    7.990683e+03
  3.665173e+01    7.849533e+03
  3.674327e+01    7.837603e+03
  3.683481e+01    7.855894e+03
  3.692635e+01    7.886783e+03
  3.701790e+01    7.950375e+03
  3.710944e+01    8.049960e+03
  3.720098e+01    8.222448e+03
  3.729252e+01    8.540723e+03
  3.738406e+01    9.410747e+03
  3.747560e+01    1.399187e+04
  3.756714e+01    5.518372e+04
  3.765869e+01    5.357376e+04
  3.775023e+01    1.409434e+04
  3.784177e+01    9.533944e+03
  3.793331e+01    8.648468e+03
  3.802485e+01    8.288494e+03
  3.811639e+01    8.141970e+03
  3.820793e+01    8.031213e+03
  3.829948e+01    7.988105e+03
  3.839102e+01    7.945941e+03
  3.848256e+01    7.933083e+03
  3.857410e+01    7.961893e+03
  3.866564e+01    8.080000e+03
  3.875718e+01    9.377872e+03
  3.884872e+01    9.886291e+03
  3.894027e+01    8.161210e+03
  3.903181e+01    7.909986e+03
  3.912335e+01    7.864815e+03
  3.921489e+01    7.818595e+03
  3.930643e+01    7.791308e+03
  3.939797e+01    7.790790e+03
  3.948951e+01    7.746204e+03
  3.958106e+01    7.703188e+03
  3.967260e+01    7.673940e+03
  3.976414e+01    7.639310e+03
  3.985568e+01    7.691842e+03
  3.994722e+01    8.148702e+03
  4.003876e+01    7.958453e+03
  4.013031e+01    7.620785e+03
  4.022185e+01    7.564220e+03
  4.031339e+01    7.537190e+03
  4.040493e+01    7.523289e+03
  4.049647e+01    7.507401e+03
  4.058801e+01    7.480782e+03
  4.067955e+01    7.476833e+03
  4.077110e+01    7.497278e+03
  4.086264e+01    7.546330e+03
  4.095418e+01    7.777511e+03
  4.104572e+01    1.001505e+04
  4.113726e+01    1.425609e+04
  4.122880e+01    8.757992e+03
  4.132034e+01    7.630982e+03
  4.141189e+01    7.455446e+03
  4.150343e+01    7.400441e+03
  4.159497e+01    7.387250e+03
  4.168651e+01    7.384100e+03
  4.177805e+01    7.356776e+03
  4.186959e+01    7.345243e+03
  4.196113e+01    7.340041e+03
  4.205268e+01    7.372129e+03
  4.214422e+01    7.680123e+03
  4.223576e+01    8.833558e+03
  4.232730e+01    7.737771e+03
  4.241884e+01    7.365559e+03
  4.251038e+01    7.313147e+03
  4.260192e+01    7.296906e+03
  4.269347e+01    7.280879e+03
  4.278501e+01    7.288018e+03
  4.287655e+01    7.288876e+03
  4.296809e+01    7.323396e+03
  4.305963e+01    7.402982e+03
  4.315117e+01    7.571327e+03
  4.324272e+01    9.101849e+03
  4.333426e+01    1.328851e+04
  4.342580e+01    8.887360e+03
  4.351734e+01    7.819183e+03
  4.360888e+01    8.227423e+03
  4.370042e+01    1.409838e+04
  4.379196e+01    3.102648e+04
  4.388351e+01    1.255360e+04
  4.397505e+01    8.209091e+03
  4.406659e+01    7.742049e+03
  4.415813e+01    7.860889e+03
  4.424967e+01    9.130231e+03
  4.434121e+01    2.185638e+04
  4.443275e+01    2.744616e+04
  4.452430e+01    1.024572e+04
  4.461584e+01    7.886270e+03
  4.470738e+01    7.433863e+03
  4.479892e+01    7.286434e+03
  4.489046e+01    7.204392e+03
  4.498200e+01    7.182454e+03
  4.507354e+01    7.173840e+03
  4.516509e+01    7.205264e+03
  4.525663e+01    7.358510e+03
  4.534817e+01    8.680401e+03
  4.543971e+01    1.407421e+04
  4.553125e+01    9.295719e+03
  4.562279e+01    7.334250e+03
  4.571433e+01    7.099677e+03
  4.580588e+01    7.035120e+03
  4.589742e+01    6.973580e+03
  4.598896e+01    6.931294e+03
  4.608050e+01    6.909967e+03
  4.617204e+01    6.908796e+03
  4.626358e+01    6.945073e+03
  4.635513e+01    7.190342e+03
  4.644667e+01    8.854174e+03
  4.653821e+01    8.022025e+03
  4.662975e+01    7.069101e+03
  4.672129e+01    6.985039e+03
  4.681283e+01    6.975953e+03
  4.690437e+01    6.986979e+03
  4.699592e+01    7.030356e+03
  4.708746e+01    7.092954e+03
  4.717900e+01    7.150462e+03
  4.727054e+01    7.257807e+03
  4.736208e+01    7.514345e+03
  4.745362e+01    8.774088e+03
  4.754516e+01    8.506135e+03
  4.763671e+01    8.078224e+03
  4.772825e+01    7.857763e+03
  4.781979e+01    7.456825e+03
  4.788844e+01    2.989580e+03

File: wam39b_rampe_2_xrd_000005_integrated.dat
# == pyFAI calibration ==
# Distance Sample to Detector: 0.261615 m
# PONI: 2.023e-01, 2.348e-01 m
# Rotations: -0.026380 0.002005 0.000000 rad
#
# == Fit2d calibration ==
# Distance Sample-beamCenter: 261.707 mm
# Center: x=6119.331, y=5134.776 pix
# Tilt: 1.516 deg  TiltPlanRot: 4.347 deg
#
# Detector Rayonix SX165	 PixelSize= 3.950e-05, 3.950e-05 m
#    Detector has a mask: True
#    Detector has a dark current: False
#    detector has a flat field: False
#
# Wavelength: 1.12713e-10 m
# Mask applied: from detector
# Dark current applied: False
# Flat field applied: False
# Polarization factor: None
# Normalization factor: 1.0
# --> ROCK\\WAM39B_integrated\wam39b_rampe_2_xrd_000005_integrated.dat
#       2th_deg             I
  2.502596e+01    4.332038e+03
  2.511750e+01    1.777705e+04
  2.520905e+01    1.802828e+04
  2.530059e+01    1.811803e+04
  2.539213e+01    1.760926e+04
  2.548367e+01    1.750907e+04
  2.557521e+01    1.738775e+04
  2.566675e+01    1.731108e+04
  2.575829e+01    1.711601e+04
  2.584984e+01    1.694111e+04
  2.594138e+01    1.693425e+04
  2.603292e+01    1.710618e+04
  2.612446e+01    1.754114e+04
  2.621600e+01    1.963666e+04
  2.630754e+01    3.110090e+04
  2.639908e+01    5.430766e+04
  2.649063e+01    3.029503e+04
  2.658217e+01    1.860030e+04
  2.667371e+01    1.653167e+04
  2.676525e+01    1.584627e+04
  2.685679e+01    1.549476e+04
  2.694833e+01    1.524886e+04
  2.703988e+01    1.503538e+04
  2.713142e+01    1.487204e+04
  2.722296e+01    1.468015e+04
  2.731450e+01    1.452570e+04
  2.740604e+01    1.435253e+04
  2.749758e+01    1.423714e+04
  2.758912e+01    1.413425e+04
  2.768067e+01    1.405611e+04
  2.777221e+01    1.403659e+04
  2.786375e+01    1.457745e+04
  2.795529e+01    1.789030e+04
  2.804683e+01    1.610763e+04
  2.813837e+01    1.374675e+04
  2.822991e+01    1.323810e+04
  2.832146e+01    1.300847e+04
  2.841300e+01    1.280876e+04
  2.850454e+01    1.264459e+04
  2.859608e+01    1.249457e+04
  2.868762e+01    1.230672e+04
  2.877916e+01    1.215183e+04
  2.887070e+01    1.198898e+04
  2.896225e+01    1.182276e+04
  2.905379e+01    1.163945e+04
  2.914533e+01    1.147168e+04
  2.923687e+01    1.134520e+04
  2.932841e+01    1.123504e+04
  2.941995e+01    1.132893e+04
  2.951149e+01    1.255995e+04
  2.960304e+01    1.157355e+04
  2.969458e+01    1.071834e+04
  2.978612e+01    1.049903e+04
  2.987766e+01    1.036894e+04
  2.996920e+01    1.032170e+04
  3.006074e+01    1.030374e+04
  3.015228e+01    1.032301e+04
  3.024383e+01    1.038840e+04
  3.033537e+01    1.071422e+04
  3.042691e+01    1.214702e+04
  3.051845e+01    2.377325e+04
  3.060999e+01    5.932982e+04
  3.070153e+01    2.207365e+04
  3.079308e+01    1.247329e+04
  3.088462e+01    1.258716e+04
  3.097616e+01    2.394319e+04
  3.106770e+01    1.993609e+04
  3.115924e+01    1.098624e+04
  3.125078e+01    9.779286e+03
  3.134232e+01    9.452913e+03
  3.143387e+01    9.290980e+03
  3.152541e+01    9.162475e+03
  3.161695e+01    9.076054e+03
  3.170849e+01    8.992381e+03
  3.180003e+01    8.917483e+03
  3.189157e+01    8.857065e+03
  3.198311e+01    8.798666e+03
  3.207466e+01    8.741039e+03
  3.216620e+01    8.694948e+03
  3.225774e+01    8.696941e+03
  3.234928e+01    9.138861e+03
  3.244082e+01    1.010929e+04
  3.253236e+01    8.804561e+03
  3.262390e+01    8.478223e+03
  3.271545e+01    8.390835e+03
  3.280699e+01    8.310085e+03
  3.289853e+01    8.267599e+03
  3.299007e+01    8.195236e+03
  3.308161e+01    8.142354e+03
  3.317315e+01    8.110382e+03
  3.326469e+01    8.082326e+03
  3.335624e+01    8.065323e+03
  3.344778e+01    8.064527e+03
  3.353932e+01    8.148760e+03
  3.363086e+01    8.661207e+03
  3.372240e+01    1.354449e+04
  3.381394e+01    1.958058e+04
  3.390549e+01    9.842551e+03
  3.399703e+01    8.112051e+03
  3.408857e+01    7.805687e+03
  3.418011e+01    7.681802e+03
  3.427165e+01    7.607767e+03
  3.436319e+01    7.544649e+03
  3.445473e+01    7.484562e+03
  3.454628e+01    7.439684e+03
  3.463782e+01    7.391223e+03
  3.472936e+01    7.340927e+03
  3.482090e+01    7.305309e+03
  3.491244e+01    7.264298e+03
  3.500398e+01    7.225425e+03
  3.509552e+01    7.190218e+03
  3.518707e+01    7.172151e+03
  3.527861e+01    7.143842e+03
  3.537015e+01    7.091480e+03
  3.546169e+01    7.044362e+03
  3.555323e+01    7.020316e+03
  3.564477e+01    6.981328e+03
  3.573631e+01    6.964919e+03
  3.582786e+01    6.952008e+03
  3.591940e+01    6.950619e+03
  3.601094e+01    6.977252e+03
  3.610248e+01    7.011588e+03
  3.619402e+01    7.151679e+03
  3.628556e+01    8.198332e+03
  3.637710e+01    1.206504e+04
  3.646865e+01    8.461253e+03
  3.656019e+01    7.231793e+03
  3.665173e+01    7.093690e+03
  3.674327e+01    7.081476e+03
  3.683481e+01    7.098020e+03
  3.692635e+01    7.128881e+03
  3.701790e+01    7.183054e+03
  3.710944e+01    7.276584e+03
  3.720098e+01    7.421690e+03
  3.729252e+01    7.703503e+03
  3.738406e+01    8.473591e+03
  3.747560e+01    1.235816e+04
  3.756714e+01    4.815284e+04
  3.765869e+01    5.097876e+04
  3.775023e+01    1.318659e+04
  3.784177e+01    8.685555e+03
  3.793331e+01    7.830026e+03
  3.802485e+01    7.494042e+03
  3.811639e+01    7.355868e+03
  3.820793e+01    7.262916e+03
  3.829948e+01    7.218465e+03
  3.839102e+01    7.181820e+03
  3.848256e+01    7.170990e+03
  3.857410e+01    7.189095e+03
  3.866564e+01    7.289533e+03
  3.875718e+01    8.401642e+03
  3.884872e+01    9.031396e+03
  3.894027e+01    7.390729e+03
  3.903181e+01    7.148684e+03
  3.912335e+01    7.090321e+03
  3.921489e+01    7.056982e+03
  3.930643e+01    7.031861e+03
  3.939797e+01    7.021672e+03
  3.948951e+01    6.985188e+03
  3.958106e+01    6.947418e+03
  3.967260e+01    6.920737e+03
  3.976414e+01    6.900221e+03
  3.985568e+01    6.939757e+03
  3.994722e+01    7.335126e+03
  4.003876e+01    7.210238e+03
  4.013031e+01    6.882868e+03
  4.022185e+01    6.820342e+03
  4.031339e+01    6.803075e+03
  4.040493e+01    6.785995e+03
  4.049647e+01    6.771739e+03
  4.058801e+01    6.747102e+03
  4.067955e+01    6.756543e+03
  4.077110e+01    6.764679e+03
  4.086264e+01    6.815488e+03
  4.095418e+01    7.004506e+03
  4.104572e+01    8.896755e+03
  4.113726e+01    1.306690e+04
  4.122880e+01    8.050938e+03
  4.132034e+01    6.902145e+03
  4.141189e+01    6.739765e+03
  4.150343e+01    6.693653e+03
  4.159497e+01    6.677504e+03
  4.168651e+01    6.673765e+03
  4.177805e+01    6.645358e+03
  4.186959e+01    6.634921e+03
  4.196113e+01    6.625378e+03
  4.205268e+01    6.651907e+03
  4.214422e+01    6.917974e+03
  4.223576e+01    8.004386e+03
  4.232730e+01    7.032689e+03
  4.241884e+01    6.650842e+03
  4.251038e+01    6.598555e+03
  4.260192e+01    6.581868e+03
  4.269347e+01    6.579629e+03
  4.278501e+01    6.574483e+03
  4.287655e+01    6.580294e+03
  4.296809e+01    6.613060e+03
  4.305963e+01    6.674331e+03
  4.315117e+01    6.829841e+03
  4.324272e+01    8.095994e+03
  4.333426e+01    1.211316e+04
  4.342580e+01    8.148976e+03
  4.351734e+01    7.049737e+03
  4.360888e+01    7.268818e+03
  4.370042e+01    1.023912e+04
  4.379196e+01    2.710468e+04
  4.388351e+01    1.434755e+04
  4.397505e+01    7.841238e+03
  4.406659e+01    7.087536e+03
  4.415813e+01    7.128901e+03
  4.424967e+01    8.186149e+03
  4.434121e+01    1.899704e+04
  4.443275e+01    2.586442e+04
  4.452430e+01    9.568843e+03
  4.461584e+01    7.167071e+03
  4.470738e+01    6.730510e+03
  4.479892e+01    6.588348e+03
  4.489046e+01    6.512355e+03
  4.498200e+01    6.488266e+03
  4.507354e+01    6.463920e+03
  4.516509e+01    6.500386e+03
  4.525663e+01    6.629951e+03
  4.534817e+01    7.740893e+03
  4.543971e+01    1.275004e+04
  4.553125e+01    8.637235e+03
  4.562279e+01    6.648652e+03
  4.571433e+01    6.418443e+03
  4.580588e+01    6.335112e+03
  4.589742e+01    6.290399e+03
  4.598896e+01    6.263344e+03
  4.608050e+01    6.237256e+03
  4.617204e+01    6.229185e+03
  4.626358e+01    6.270590e+03
  4.635513e+01    6.468422e+03
  4.644667e+01    7.949842e+03
  4.653821e+01    7.342126e+03
  4.662975e+01    6.414546e+03
  4.672129e+01    6.296125e+03
  4.681283e+01    6.291282e+03
  4.690437e+01    6.307986e+03
  4.699592e+01    6.340519e+03
  4.708746e+01    6.392165e+03
  4.717900e+01    6.456884e+03
  4.727054e+01    6.546846e+03
  4.736208e+01    6.765286e+03
  4.745362e+01    7.890995e+03
  4.754516e+01    7.759007e+03
  4.763671e+01    7.296566e+03
  4.772825e+01    7.085391e+03
  4.781979e+01    6.727079e+03
  4.788844e+01    2.709953e+03