Folder: heo-xas-xrd/Output/ROCK_XRD

Note: README.md
# heo-xas-xrd
Code for processing and plotting of data from XAS and XRD studies performed at SOLEIL/ROCK and ESRF/BM23. Detailed usage instructions are available but not here.

# Files
### `OLD-xas-compare-pca`
Uses a deprecated naive method for data normalization. Should never be used. See `xas-pca-compare`.

### `fdmgen` and `fdmgen-config`
Simple script for batch-producing FDMNES input files that reference a CIF structure directly. To be run from the same directory in which the `fdmfile` should be produced.

### `materials-project-query`
A failed attempt at custom queries to the Materials Project database using the new `mp-api`.

### `nexus-read`
An example of reading `.nxs` data. Not used in practice.

### `struct2xas-client`
Client notebook to produce FDMNES input files from CIF structures, including visualization and other quality-of-life features owing to `struct2xas`.

### `struct2xas`
A version of bfoschiani's `struct2xas` I use. Currently has some issues with certain structures.

### `xas-pca-compare`
Intended to take inconveniently large sets of normalized XAS data and cluster the spectra based on their principle component decompositions with no manual intervention.

### `xas-pca-time-evolution`
See `xas-pca-compare`, also includes ability to plot timeseries tracking evolution of XAS spectra through the space of XAS data. Will become useful once time-resolved XAS are available, in addition to steady-state references. Currently tested on time-resolved XANES data, with mediocre results.

### `xas-time-evolution-bm23`
For plotting XAS over time and temperature, as well as spectrograms of change over time, and integrated change over time (difference spectra). Works with ESRF beamline HDF5 files.

### `xas-time-evolution-rock`
Same as `xas-time-evolution-bm23` but includes code to read the specific directory structure produced by the ROCK beamline at SOLEIL when operated in quick-EXAFS mode and processed using `moulinex` and whatever other dark magic they have over there.

### `rocklogparse`
Fragile code hacked together for parsing log files made in human-readable formats.

### `xrd-batch-integrate`
Uses geometry (PONI) data acquired through calibration images (`xrd-cal`) to perform azimuthal integration on XRD patterns from area detectors.

### `xrd-cal`
Client to `pyfai` for calibration of area detectors.

### `xrd-sim`
Work in progress for producing fake images of XRD patterns given geometry and sample data.

### `xrd-time-evolution`
Used to plot azimuthally integrated XRD patterns over time and temperature.

File: lab6_250mm_2_integrated_noblur.dat
# == pyFAI calibration ==
# Distance Sample to Detector: 0.261615 m
# PONI: 2.023e-01, 2.348e-01 m
# Rotations: -0.026380 0.002005 0.000000 rad
#
# == Fit2d calibration ==
# Distance Sample-beamCenter: 261.707 mm
# Center: x=6119.331, y=5134.776 pix
# Tilt: 1.516 deg  TiltPlanRot: 4.347 deg
#
# Detector Rayonix SX165	 PixelSize= 3.950e-05, 3.950e-05 m
#    Detector has a mask: True
#    Detector has a dark current: False
#    detector has a flat field: False
#
# Wavelength: 1.12713e-10 m
# Mask applied: from detector
# Dark current applied: False
# Flat field applied: False
# Polarization factor: None
# Normalization factor: 1.0
# --> integration.dat
#       2th_deg             I
  2.502596e+01    2.554276e+03
  2.511750e+01    1.079300e+04
  2.520905e+01    1.162769e+04
  2.530059e+01    1.191019e+04
  2.539213e+01    1.181790e+04
  2.548367e+01    1.187365e+04
  2.557521e+01    1.188590e+04
  2.566675e+01    1.196601e+04
  2.575829e+01    1.193364e+04
  2.584984e+01    1.188120e+04
  2.594138e+01    1.183116e+04
  2.603292e+01    1.179305e+04
  2.612446e+01    1.175211e+04
  2.621600e+01    1.171373e+04
  2.630754e+01    1.165962e+04
  2.639908e+01    1.154041e+04
  2.649063e+01    1.132371e+04
  2.658217e+01    1.110258e+04
  2.667371e+01    1.095291e+04
  2.676525e+01    1.089712e+04
  2.685679e+01    1.104052e+04
  2.694833e+01    1.209488e+04
  2.703988e+01    2.105974e+04
  2.713142e+01    4.335291e+04
  2.722296e+01    3.162931e+04
  2.731450e+01    1.296485e+04
  2.740604e+01    1.014436e+04
  2.749758e+01    9.465053e+03
  2.758912e+01    9.116961e+03
  2.768067e+01    8.855205e+03
  2.777221e+01    8.582574e+03
  2.786375e+01    8.389223e+03
  2.795529e+01    8.253566e+03
  2.804683e+01    8.137279e+03
  2.813837e+01    8.044464e+03
  2.822991e+01    7.972885e+03
  2.832146e+01    7.920790e+03
  2.841300e+01    7.865330e+03
  2.850454e+01    7.811710e+03
  2.859608e+01    7.783849e+03
  2.868762e+01    7.700534e+03
  2.877916e+01    7.643593e+03
  2.887070e+01    7.600464e+03
  2.896225e+01    7.551740e+03
  2.905379e+01    7.505234e+03
  2.914533e+01    7.489961e+03
  2.923687e+01    7.438400e+03
  2.932841e+01    7.407305e+03
  2.941995e+01    7.381388e+03
  2.951149e+01    7.327164e+03
  2.960304e+01    7.306626e+03
  2.969458e+01    7.258389e+03
  2.978612e+01    7.236580e+03
  2.987766e+01    7.198938e+03
  2.996920e+01    7.169222e+03
  3.006074e+01    7.154437e+03
  3.015228e+01    7.130738e+03
  3.024383e+01    7.113483e+03
  3.033537e+01    7.095931e+03
  3.042691e+01    7.087781e+03
  3.051845e+01    7.097600e+03
  3.060999e+01    7.079322e+03
  3.070153e+01    7.069991e+03
  3.079308e+01    7.053198e+03
  3.088462e+01    7.061253e+03
  3.097616e+01    7.031974e+03
  3.106770e+01    7.047367e+03
  3.115924e+01    7.115528e+03
  3.125078e+01    7.463357e+03
  3.134232e+01    1.011578e+04
  3.143387e+01    2.701128e+04
  3.152541e+01    2.193232e+04
  3.161695e+01    8.193756e+03
  3.170849e+01    7.118594e+03
  3.180003e+01    6.894285e+03
  3.189157e+01    6.827568e+03
  3.198311e+01    6.738653e+03
  3.207466e+01    6.690806e+03
  3.216620e+01    6.673366e+03
  3.225774e+01    6.615669e+03
  3.234928e+01    6.573015e+03
  3.244082e+01    6.541719e+03
  3.253236e+01    6.496052e+03
  3.262390e+01    6.498534e+03
  3.271545e+01    6.428158e+03
  3.280699e+01    6.392397e+03
  3.289853e+01    6.362410e+03
  3.299007e+01    6.334684e+03
  3.308161e+01    6.310091e+03
  3.317315e+01    6.262019e+03
  3.326469e+01    6.242451e+03
  3.335624e+01    6.205094e+03
  3.344778e+01    6.184681e+03
  3.353932e+01    6.156009e+03
  3.363086e+01    6.112203e+03
  3.372240e+01    6.092473e+03
  3.381394e+01    6.066626e+03
  3.390549e+01    6.028881e+03
  3.399703e+01    6.000311e+03
  3.408857e+01    5.972496e+03
  3.418011e+01    5.959041e+03
  3.427165e+01    5.940057e+03
  3.436319e+01    5.913626e+03
  3.445473e+01    5.914365e+03
  3.454628e+01    5.913522e+03
  3.463782e+01    5.931704e+03
  3.472936e+01    5.976398e+03
  3.482090e+01    6.008767e+03
  3.491244e+01    6.066394e+03
  3.500398e+01    6.254033e+03
  3.509552e+01    7.035261e+03
  3.518707e+01    1.885728e+04
  3.527861e+01    5.412725e+04
  3.537015e+01    3.451207e+04
  3.546169e+01    8.132019e+03
  3.555323e+01    6.187113e+03
  3.564477e+01    5.833260e+03
  3.573631e+01    5.696575e+03
  3.582786e+01    5.621110e+03
  3.591940e+01    5.560931e+03
  3.601094e+01    5.535756e+03
  3.610248e+01    5.515728e+03
  3.619402e+01    5.467192e+03
  3.628556e+01    5.436079e+03
  3.637710e+01    5.406624e+03
  3.646865e+01    5.386940e+03
  3.656019e+01    5.372047e+03
  3.665173e+01    5.349962e+03
  3.674327e+01    5.344597e+03
  3.683481e+01    5.323439e+03
  3.692635e+01    5.320734e+03
  3.701790e+01    5.314480e+03
  3.710944e+01    5.318844e+03
  3.720098e+01    5.318001e+03
  3.729252e+01    5.328464e+03
  3.738406e+01    5.321617e+03
  3.747560e+01    5.320956e+03
  3.756714e+01    5.333979e+03
  3.765869e+01    5.345137e+03
  3.775023e+01    5.346386e+03
  3.784177e+01    5.359880e+03
  3.793331e+01    5.374568e+03
  3.802485e+01    5.364842e+03
  3.811639e+01    5.383309e+03
  3.820793e+01    5.394351e+03
  3.829948e+01    5.431814e+03
  3.839102e+01    5.468624e+03
  3.848256e+01    5.583487e+03
  3.857410e+01    5.894316e+03
  3.866564e+01    8.707512e+03
  3.875718e+01    2.988755e+04
  3.884872e+01    1.925467e+04
  3.894027e+01    6.462928e+03
  3.903181e+01    5.710092e+03
  3.912335e+01    5.539022e+03
  3.921489e+01    5.469289e+03
  3.930643e+01    5.429683e+03
  3.939797e+01    5.399505e+03
  3.948951e+01    5.369843e+03
  3.958106e+01    5.342298e+03
  3.967260e+01    5.319921e+03
  3.976414e+01    5.295165e+03
  3.985568e+01    5.287015e+03
  3.994722e+01    5.287482e+03
  4.003876e+01    5.265595e+03
  4.013031e+01    5.263255e+03
  4.022185e+01    5.262554e+03
  4.031339e+01    5.249480e+03
  4.040493e+01    5.236666e+03
  4.049647e+01    5.227813e+03
  4.058801e+01    5.213815e+03
  4.067955e+01    5.210318e+03
  4.077110e+01    5.215545e+03
  4.086264e+01    5.211755e+03
  4.095418e+01    5.203375e+03
  4.104572e+01    5.198422e+03
  4.113726e+01    5.192221e+03
  4.122880e+01    5.182282e+03
  4.132034e+01    5.193455e+03
  4.141189e+01    5.189077e+03
  4.150343e+01    5.189488e+03
  4.159497e+01    5.199040e+03
  4.168651e+01    5.203324e+03
  4.177805e+01    5.188911e+03
  4.186959e+01    5.199045e+03
  4.196113e+01    5.201455e+03
  4.205268e+01    5.195462e+03
  4.214422e+01    5.182704e+03
  4.223576e+01    5.192153e+03
  4.232730e+01    5.192640e+03
  4.241884e+01    5.195917e+03
  4.251038e+01    5.190559e+03
  4.260192e+01    5.198439e+03
  4.269347e+01    5.202653e+03
  4.278501e+01    5.205554e+03
  4.287655e+01    5.189886e+03
  4.296809e+01    5.199805e+03
  4.305963e+01    5.183657e+03
  4.315117e+01    5.175549e+03
  4.324272e+01    5.181237e+03
  4.333426e+01    5.170282e+03
  4.342580e+01    5.179828e+03
  4.351734e+01    5.162744e+03
  4.360888e+01    5.161060e+03
  4.370042e+01    5.161395e+03
  4.379196e+01    5.162678e+03
  4.388351e+01    5.163354e+03
  4.397505e+01    5.169689e+03
  4.406659e+01    5.174142e+03
  4.415813e+01    5.180458e+03
  4.424967e+01    5.176819e+03
  4.434121e+01    5.195756e+03
  4.443275e+01    5.202474e+03
  4.452430e+01    5.219758e+03
  4.461584e+01    5.235687e+03
  4.470738e+01    5.240970e+03
  4.479892e+01    5.312361e+03
  4.489046e+01    5.502285e+03
  4.498200e+01    8.013055e+03
  4.507354e+01    1.654040e+04
  4.516509e+01    7.636961e+03
  4.525663e+01    5.502993e+03
  4.534817e+01    5.312440e+03
  4.543971e+01    5.255639e+03
  4.553125e+01    5.248984e+03
  4.562279e+01    5.228751e+03
  4.571433e+01    5.226242e+03
  4.580588e+01    5.223790e+03
  4.589742e+01    5.200212e+03
  4.598896e+01    5.193201e+03
  4.608050e+01    5.173917e+03
  4.617204e+01    5.149155e+03
  4.626358e+01    5.169952e+03
  4.635513e+01    5.159661e+03
  4.644667e+01    5.159500e+03
  4.653821e+01    5.158977e+03
  4.662975e+01    5.134601e+03
  4.672129e+01    5.120761e+03
  4.681283e+01    5.119994e+03
  4.690437e+01    5.098271e+03
  4.699592e+01    5.083656e+03
  4.708746e+01    5.084259e+03
  4.717900e+01    5.056878e+03
  4.727054e+01    5.053032e+03
  4.736208e+01    5.048106e+03
  4.745362e+01    5.074978e+03
  4.754516e+01    5.163553e+03
  4.763671e+01    5.259101e+03
  4.772825e+01    5.478446e+03
  4.781979e+01    6.927223e+03
  4.788844e+01    5.975172e+03